Difficulty,do_switch,resp_type,keyTrial.rt,too_slow_trial,trial_num,block_num,correct,block_third,Incentive,ExactAge,FlooredAge,AgeGroup,participant
Easy,0,correct,0.848,0,1,1,1,Early,10¢,20.257534246575343,20,Adults,151
Easy,1,correct,0.9108,0,2,1,1,Early,10¢,20.257534246575343,20,Adults,151
Easy,0,correct,0.6746,0,3,1,1,Early,10¢,20.257534246575343,20,Adults,151
Easy,0,correct,0.845,0,4,1,1,Early,10¢,20.257534246575343,20,Adults,151
Easy,0,correct,0.5644,0,5,1,1,Early,10¢,20.257534246575343,20,Adults,151
Easy,1,correct,0.6446,0,6,1,1,Early,10¢,20.257534246575343,20,Adults,151
Easy,0,correct,0.5607,0,7,1,1,Early,10¢,20.257534246575343,20,Adults,151
Easy,0,correct,0.636,0,8,1,1,Early,10¢,20.257534246575343,20,Adults,151
Easy,0,correct,0.7614,0,9,1,1,Early,10¢,20.257534246575343,20,Adults,151
Easy,0,correct,0.5551,0,10,1,1,Early,10¢,20.257534246575343,20,Adults,151
Easy,1,correct,0.904,0,11,1,1,Early,10¢,20.257534246575343,20,Adults,151
Easy,0,correct,0.7094,0,12,1,1,Early,10¢,20.257534246575343,20,Adults,151
Easy,1,correct,0.5129,0,13,1,1,Early,10¢,20.257534246575343,20,Adults,151
Easy,0,correct,0.4085,0,14,1,1,Early,10¢,20.257534246575343,20,Adults,151
Easy,0,correct,0.4149,0,15,1,1,Early,10¢,20.257534246575343,20,Adults,151
Easy,0,correct,0.4314,0,16,1,1,Early,10¢,20.257534246575343,20,Adults,151
Easy,0,correct,0.5,0,17,1,1,Early,10¢,20.257534246575343,20,Adults,151
Easy,0,incorrect,0.4949,0,18,1,0,Early,10¢,20.257534246575343,20,Adults,151
Easy,0,correct,0.6199,0,19,1,1,Early,10¢,20.257534246575343,20,Adults,151
Easy,0,correct,0.5359,0,20,1,1,Early,10¢,20.257534246575343,20,Adults,151
Easy,0,correct,0.7172,0,21,2,1,Early,1¢,20.257534246575343,20,Adults,151
Easy,0,correct,0.657,0,22,2,1,Early,1¢,20.257534246575343,20,Adults,151
Easy,0,correct,0.4495,0,23,2,1,Early,1¢,20.257534246575343,20,Adults,151
Easy,0,correct,0.4861,0,24,2,1,Early,1¢,20.257534246575343,20,Adults,151
Easy,1,correct,0.8381,0,25,2,1,Early,1¢,20.257534246575343,20,Adults,151
Easy,0,correct,0.8176,0,26,2,1,Early,1¢,20.257534246575343,20,Adults,151
Easy,0,correct,0.7382,0,27,2,1,Early,1¢,20.257534246575343,20,Adults,151
Easy,0,correct,0.7067,0,28,2,1,Early,1¢,20.257534246575343,20,Adults,151
Easy,0,correct,0.8078,0,29,2,1,Early,1¢,20.257534246575343,20,Adults,151
Easy,0,correct,0.734,0,30,2,1,Early,1¢,20.257534246575343,20,Adults,151
Easy,0,correct,0.751,0,31,2,1,Early,1¢,20.257534246575343,20,Adults,151
Easy,1,correct,0.7261,0,32,2,1,Early,1¢,20.257534246575343,20,Adults,151
Easy,0,correct,0.6112,0,33,2,1,Early,1¢,20.257534246575343,20,Adults,151
Easy,0,correct,0.6338,0,34,2,1,Early,1¢,20.257534246575343,20,Adults,151
Easy,1,correct,0.7912,0,35,2,1,Early,1¢,20.257534246575343,20,Adults,151
Easy,0,correct,0.6676,0,36,2,1,Early,1¢,20.257534246575343,20,Adults,151
Easy,0,correct,0.7507,0,37,2,1,Early,1¢,20.257534246575343,20,Adults,151
Easy,0,correct,0.7516,0,38,2,1,Early,1¢,20.257534246575343,20,Adults,151
Easy,0,correct,0.7845,0,39,2,1,Early,1¢,20.257534246575343,20,Adults,151
Easy,1,correct,0.7688,0,40,2,1,Early,1¢,20.257534246575343,20,Adults,151
Hard,0,correct,0.8264,0,41,3,1,Early,10¢,20.257534246575343,20,Adults,151
Hard,1,correct,0.6167,0,42,3,1,Early,10¢,20.257534246575343,20,Adults,151
Hard,1,correct,0.6173,0,43,3,1,Early,10¢,20.257534246575343,20,Adults,151
Hard,0,correct,0.6612,0,44,3,1,Early,10¢,20.257534246575343,20,Adults,151
Hard,1,correct,0.6996,0,45,3,1,Early,10¢,20.257534246575343,20,Adults,151
Hard,1,correct,0.6342,0,46,3,1,Early,10¢,20.257534246575343,20,Adults,151
Hard,1,correct,0.6405,0,47,3,1,Early,10¢,20.257534246575343,20,Adults,151
Hard,0,correct,0.6391,0,48,3,1,Early,10¢,20.257534246575343,20,Adults,151
Hard,0,correct,0.8487,0,49,3,1,Early,10¢,20.257534246575343,20,Adults,151
Hard,0,correct,0.5972,0,50,3,1,Early,10¢,20.257534246575343,20,Adults,151
Hard,0,correct,0.7191,0,51,3,1,Early,10¢,20.257534246575343,20,Adults,151
Hard,0,correct,0.6066,0,52,3,1,Early,10¢,20.257534246575343,20,Adults,151
Hard,1,correct,0.6343,0,53,3,1,Early,10¢,20.257534246575343,20,Adults,151
Hard,0,correct,0.6213,0,54,3,1,Early,10¢,20.257534246575343,20,Adults,151
Hard,1,correct,0.6515,0,55,3,1,Early,10¢,20.257534246575343,20,Adults,151
Hard,1,correct,0.5513,0,56,3,1,Early,10¢,20.257534246575343,20,Adults,151
Hard,1,correct,0.7649,0,57,3,1,Early,10¢,20.257534246575343,20,Adults,151
Hard,1,correct,0.5558,0,58,3,1,Early,10¢,20.257534246575343,20,Adults,151
Hard,0,correct,0.601,0,59,3,1,Early,10¢,20.257534246575343,20,Adults,151
Hard,0,correct,0.4514,0,60,3,1,Early,10¢,20.257534246575343,20,Adults,151
Hard,0,correct,0.6648,0,61,4,1,Early,1¢,20.257534246575343,20,Adults,151
Hard,0,correct,0.5505,0,62,4,1,Early,1¢,20.257534246575343,20,Adults,151
Hard,0,correct,0.6554,0,63,4,1,Early,1¢,20.257534246575343,20,Adults,151
Hard,1,correct,0.7063,0,64,4,1,Early,1¢,20.257534246575343,20,Adults,151
Hard,1,correct,0.6384,0,65,4,1,Early,1¢,20.257534246575343,20,Adults,151
Hard,1,correct,0.738,0,66,4,1,Early,1¢,20.257534246575343,20,Adults,151
Hard,1,correct,0.5053,0,67,4,1,Early,1¢,20.257534246575343,20,Adults,151
Hard,0,correct,0.6495,0,68,4,1,Early,1¢,20.257534246575343,20,Adults,151
Hard,1,correct,0.73740000000000006,0,69,4,1,Early,1¢,20.257534246575343,20,Adults,151
Hard,0,correct,1.0544,0,70,4,1,Early,1¢,20.257534246575343,20,Adults,151
Hard,1,correct,0.5536,0,71,4,1,Early,1¢,20.257534246575343,20,Adults,151
Hard,0,correct,0.6203,0,72,4,1,Early,1¢,20.257534246575343,20,Adults,151
Hard,1,correct,0.7373,0,73,4,1,Early,1¢,20.257534246575343,20,Adults,151
Hard,1,correct,0.5391,0,74,4,1,Early,1¢,20.257534246575343,20,Adults,151
Hard,0,correct,0.5226,0,75,4,1,Early,1¢,20.257534246575343,20,Adults,151
Hard,0,correct,0.5776,0,76,4,1,Early,1¢,20.257534246575343,20,Adults,151
Hard,1,correct,0.7412,0,77,4,1,Early,1¢,20.257534246575343,20,Adults,151
Hard,0,correct,0.638,0,78,4,1,Early,1¢,20.257534246575343,20,Adults,151
Hard,0,correct,0.7535,0,79,4,1,Early,1¢,20.257534246575343,20,Adults,151
Hard,1,correct,0.5782,0,80,4,1,Early,1¢,20.257534246575343,20,Adults,151
Easy,0,too_slow,NA,1,81,5,NA,Middle,1¢,20.257534246575343,20,Adults,151
Easy,0,too_slow,NA,1,82,5,NA,Middle,1¢,20.257534246575343,20,Adults,151
Easy,0,correct,0.6164,0,83,5,1,Middle,1¢,20.257534246575343,20,Adults,151
Easy,0,correct,0.4768,0,84,5,1,Middle,1¢,20.257534246575343,20,Adults,151
Easy,0,correct,0.5176,0,85,5,1,Middle,1¢,20.257534246575343,20,Adults,151
Easy,0,correct,1.0001,0,86,5,1,Middle,1¢,20.257534246575343,20,Adults,151
Easy,0,correct,0.7093,0,87,5,1,Middle,1¢,20.257534246575343,20,Adults,151
Easy,0,correct,0.5198,0,88,5,1,Middle,1¢,20.257534246575343,20,Adults,151
Easy,1,correct,0.7991,0,89,5,1,Middle,1¢,20.257534246575343,20,Adults,151
Easy,0,correct,0.9006,0,90,5,1,Middle,1¢,20.257534246575343,20,Adults,151
Easy,0,correct,0.6925,0,91,5,1,Middle,1¢,20.257534246575343,20,Adults,151
Easy,0,correct,1.0508,0,92,5,1,Middle,1¢,20.257534246575343,20,Adults,151
Easy,1,correct,0.7429,0,93,5,1,Middle,1¢,20.257534246575343,20,Adults,151
Easy,0,correct,0.6407,0,94,5,1,Middle,1¢,20.257534246575343,20,Adults,151
Easy,0,correct,0.6678,0,95,5,1,Middle,1¢,20.257534246575343,20,Adults,151
Easy,0,correct,0.5665,0,96,5,1,Middle,1¢,20.257534246575343,20,Adults,151
Easy,1,correct,0.7153,0,97,5,1,Middle,1¢,20.257534246575343,20,Adults,151
Easy,0,correct,0.7785,0,98,5,1,Middle,1¢,20.257534246575343,20,Adults,151
Easy,0,correct,1.2382,0,99,5,1,Middle,1¢,20.257534246575343,20,Adults,151
Easy,1,too_slow,NA,1,100,5,NA,Middle,1¢,20.257534246575343,20,Adults,151
Easy,0,correct,0.9665,0,101,6,1,Middle,10¢,20.257534246575343,20,Adults,151
Easy,0,correct,0.8156,0,102,6,1,Middle,10¢,20.257534246575343,20,Adults,151
Easy,1,correct,1.2495,0,103,6,1,Middle,10¢,20.257534246575343,20,Adults,151
Easy,0,correct,1.2437,0,104,6,1,Middle,10¢,20.257534246575343,20,Adults,151
Easy,0,correct,0.8162,0,105,6,1,Middle,10¢,20.257534246575343,20,Adults,151
Easy,1,correct,0.7326,0,106,6,1,Middle,10¢,20.257534246575343,20,Adults,151
Easy,1,correct,0.7171,0,107,6,1,Middle,10¢,20.257534246575343,20,Adults,151
Easy,0,correct,0.8074,0,108,6,1,Middle,10¢,20.257534246575343,20,Adults,151
Easy,0,correct,0.6893,0,109,6,1,Middle,10¢,20.257534246575343,20,Adults,151
Easy,0,correct,0.617,0,110,6,1,Middle,10¢,20.257534246575343,20,Adults,151
Easy,0,correct,0.7081,0,111,6,1,Middle,10¢,20.257534246575343,20,Adults,151
Easy,0,correct,0.6271,0,112,6,1,Middle,10¢,20.257534246575343,20,Adults,151
Easy,0,correct,0.6532,0,113,6,1,Middle,10¢,20.257534246575343,20,Adults,151
Easy,0,correct,0.8335,0,114,6,1,Middle,10¢,20.257534246575343,20,Adults,151
Easy,0,correct,0.567,0,115,6,1,Middle,10¢,20.257534246575343,20,Adults,151
Easy,0,correct,1.0042,0,116,6,1,Middle,10¢,20.257534246575343,20,Adults,151
Easy,0,correct,0.6949,0,117,6,1,Middle,10¢,20.257534246575343,20,Adults,151
Easy,1,correct,0.6324,0,118,6,1,Middle,10¢,20.257534246575343,20,Adults,151
Easy,0,correct,0.6,0,119,6,1,Middle,10¢,20.257534246575343,20,Adults,151
Easy,0,correct,0.6341,0,120,6,1,Middle,10¢,20.257534246575343,20,Adults,151
Hard,0,correct,0.7009,0,121,7,1,Middle,1¢,20.257534246575343,20,Adults,151
Hard,0,correct,0.56,0,122,7,1,Middle,1¢,20.257534246575343,20,Adults,151
Hard,1,correct,0.7219,0,123,7,1,Middle,1¢,20.257534246575343,20,Adults,151
Hard,1,correct,0.6403,0,124,7,1,Middle,1¢,20.257534246575343,20,Adults,151
Hard,1,correct,0.8038,0,125,7,1,Middle,1¢,20.257534246575343,20,Adults,151
Hard,0,correct,0.6666,0,126,7,1,Middle,1¢,20.257534246575343,20,Adults,151
Hard,0,correct,1.1778,0,127,7,1,Middle,1¢,20.257534246575343,20,Adults,151
Hard,0,correct,0.8395,0,128,7,1,Middle,1¢,20.257534246575343,20,Adults,151
Hard,0,correct,0.9689,0,129,7,1,Middle,1¢,20.257534246575343,20,Adults,151
Hard,0,correct,0.617,0,130,7,1,Middle,1¢,20.257534246575343,20,Adults,151
Hard,0,correct,0.6246,0,131,7,1,Middle,1¢,20.257534246575343,20,Adults,151
Hard,1,correct,0.5696,0,132,7,1,Middle,1¢,20.257534246575343,20,Adults,151
Hard,1,correct,0.5374,0,133,7,1,Middle,1¢,20.257534246575343,20,Adults,151
Hard,1,correct,0.6506,0,134,7,1,Middle,1¢,20.257534246575343,20,Adults,151
Hard,0,correct,0.6831,0,135,7,1,Middle,1¢,20.257534246575343,20,Adults,151
Hard,0,correct,0.533,0,136,7,1,Middle,1¢,20.257534246575343,20,Adults,151
Hard,1,correct,0.7501,0,137,7,1,Middle,1¢,20.257534246575343,20,Adults,151
Hard,1,correct,0.5338,0,138,7,1,Middle,1¢,20.257534246575343,20,Adults,151
Hard,1,correct,0.7753,0,139,7,1,Middle,1¢,20.257534246575343,20,Adults,151
Hard,1,correct,0.8501,0,140,7,1,Middle,1¢,20.257534246575343,20,Adults,151
Hard,0,correct,0.6505,0,141,8,1,Middle,10¢,20.257534246575343,20,Adults,151
Hard,1,correct,0.6834,0,142,8,1,Middle,10¢,20.257534246575343,20,Adults,151
Hard,0,correct,0.7842,0,143,8,1,Middle,10¢,20.257534246575343,20,Adults,151
Hard,1,correct,0.4837,0,144,8,1,Middle,10¢,20.257534246575343,20,Adults,151
Hard,1,correct,0.55,0,145,8,1,Middle,10¢,20.257534246575343,20,Adults,151
Hard,0,correct,0.6015,0,146,8,1,Middle,10¢,20.257534246575343,20,Adults,151
Hard,0,correct,0.7709,0,147,8,1,Middle,10¢,20.257534246575343,20,Adults,151
Hard,0,correct,0.7247,0,148,8,1,Middle,10¢,20.257534246575343,20,Adults,151
Hard,0,correct,0.717,0,149,8,1,Middle,10¢,20.257534246575343,20,Adults,151
Hard,0,correct,0.6034,0,150,8,1,Middle,10¢,20.257534246575343,20,Adults,151
Hard,1,correct,0.5016,0,151,8,1,Middle,10¢,20.257534246575343,20,Adults,151
Hard,1,correct,0.6334,0,152,8,1,Middle,10¢,20.257534246575343,20,Adults,151
Hard,1,correct,0.5078,0,153,8,1,Middle,10¢,20.257534246575343,20,Adults,151
Hard,1,correct,0.7028,0,154,8,1,Middle,10¢,20.257534246575343,20,Adults,151
Hard,1,correct,0.5674,0,155,8,1,Middle,10¢,20.257534246575343,20,Adults,151
Hard,0,correct,0.6234,0,156,8,1,Middle,10¢,20.257534246575343,20,Adults,151
Hard,0,correct,0.8778,0,157,8,1,Middle,10¢,20.257534246575343,20,Adults,151
Hard,0,correct,0.7528,0,158,8,1,Middle,10¢,20.257534246575343,20,Adults,151
Hard,1,correct,1.2492,0,159,8,1,Middle,10¢,20.257534246575343,20,Adults,151
Hard,1,correct,0.5106,0,160,8,1,Middle,10¢,20.257534246575343,20,Adults,151
Easy,0,correct,0.5917,0,161,9,1,Late,10¢,20.257534246575343,20,Adults,151
Easy,0,correct,0.5742,0,162,9,1,Late,10¢,20.257534246575343,20,Adults,151
Easy,0,correct,0.4606,0,163,9,1,Late,10¢,20.257534246575343,20,Adults,151
Easy,1,correct,0.5945,0,164,9,1,Late,10¢,20.257534246575343,20,Adults,151
Easy,0,correct,0.6657,0,165,9,1,Late,10¢,20.257534246575343,20,Adults,151
Easy,1,correct,0.7898,0,166,9,1,Late,10¢,20.257534246575343,20,Adults,151
Easy,0,correct,0.591,0,167,9,1,Late,10¢,20.257534246575343,20,Adults,151
Easy,0,correct,0.6138,0,168,9,1,Late,10¢,20.257534246575343,20,Adults,151
Easy,1,correct,0.7967,0,169,9,1,Late,10¢,20.257534246575343,20,Adults,151
Easy,0,correct,0.6565,0,170,9,1,Late,10¢,20.257534246575343,20,Adults,151
Easy,0,correct,0.6245,0,171,9,1,Late,10¢,20.257534246575343,20,Adults,151
Easy,0,correct,0.7161,0,172,9,1,Late,10¢,20.257534246575343,20,Adults,151
Easy,0,correct,0.6744,0,173,9,1,Late,10¢,20.257534246575343,20,Adults,151
Easy,0,correct,0.8798,0,174,9,1,Late,10¢,20.257534246575343,20,Adults,151
Easy,0,correct,1.2618,0,175,9,1,Late,10¢,20.257534246575343,20,Adults,151
Easy,0,correct,0.7691,0,176,9,1,Late,10¢,20.257534246575343,20,Adults,151
Easy,1,correct,0.5822,0,177,9,1,Late,10¢,20.257534246575343,20,Adults,151
Easy,0,correct,0.8604,0,178,9,1,Late,10¢,20.257534246575343,20,Adults,151
Easy,0,correct,0.4485,0,179,9,1,Late,10¢,20.257534246575343,20,Adults,151
Easy,0,correct,0.3993,0,180,9,1,Late,10¢,20.257534246575343,20,Adults,151
Easy,0,correct,0.8563,0,181,10,1,Late,1¢,20.257534246575343,20,Adults,151
Easy,0,correct,0.5075,0,182,10,1,Late,1¢,20.257534246575343,20,Adults,151
Easy,1,correct,0.7587,0,183,10,1,Late,1¢,20.257534246575343,20,Adults,151
Easy,0,correct,1.0144,0,184,10,1,Late,1¢,20.257534246575343,20,Adults,151
Easy,0,correct,0.7228,0,185,10,1,Late,1¢,20.257534246575343,20,Adults,151
Easy,0,correct,0.7741,0,186,10,1,Late,1¢,20.257534246575343,20,Adults,151
Easy,1,correct,1.1465,0,187,10,1,Late,1¢,20.257534246575343,20,Adults,151
Easy,1,correct,0.9979,0,188,10,1,Late,1¢,20.257534246575343,20,Adults,151
Easy,0,correct,0.5767,0,189,10,1,Late,1¢,20.257534246575343,20,Adults,151
Easy,0,correct,0.6656,0,190,10,1,Late,1¢,20.257534246575343,20,Adults,151
Easy,0,correct,0.633,0,191,10,1,Late,1¢,20.257534246575343,20,Adults,151
Easy,0,correct,0.6559,0,192,10,1,Late,1¢,20.257534246575343,20,Adults,151
Easy,0,correct,0.7595,0,193,10,1,Late,1¢,20.257534246575343,20,Adults,151
Easy,0,correct,0.4982,0,194,10,1,Late,1¢,20.257534246575343,20,Adults,151
Easy,0,correct,0.6378,0,195,10,1,Late,1¢,20.257534246575343,20,Adults,151
Easy,1,correct,0.4924,0,196,10,1,Late,1¢,20.257534246575343,20,Adults,151
Easy,0,correct,0.5971,0,197,10,1,Late,1¢,20.257534246575343,20,Adults,151
Easy,0,correct,0.7587,0,198,10,1,Late,1¢,20.257534246575343,20,Adults,151
Easy,0,correct,0.6476,0,199,10,1,Late,1¢,20.257534246575343,20,Adults,151
Easy,0,correct,0.4815,0,200,10,1,Late,1¢,20.257534246575343,20,Adults,151
Hard,0,correct,0.6196,0,201,11,1,Late,10¢,20.257534246575343,20,Adults,151
Hard,0,correct,0.6671,0,202,11,1,Late,10¢,20.257534246575343,20,Adults,151
Hard,1,correct,0.6115,0,203,11,1,Late,10¢,20.257534246575343,20,Adults,151
Hard,1,correct,0.7626,0,204,11,1,Late,10¢,20.257534246575343,20,Adults,151
Hard,1,correct,0.8969,0,205,11,1,Late,10¢,20.257534246575343,20,Adults,151
Hard,1,correct,0.5054,0,206,11,1,Late,10¢,20.257534246575343,20,Adults,151
Hard,1,correct,0.5767,0,207,11,1,Late,10¢,20.257534246575343,20,Adults,151
Hard,0,correct,0.5807,0,208,11,1,Late,10¢,20.257534246575343,20,Adults,151
Hard,0,correct,0.5281,0,209,11,1,Late,10¢,20.257534246575343,20,Adults,151
Hard,1,correct,0.531,0,210,11,1,Late,10¢,20.257534246575343,20,Adults,151
Hard,0,correct,0.5084,0,211,11,1,Late,10¢,20.257534246575343,20,Adults,151
Hard,0,correct,0.523,0,212,11,1,Late,10¢,20.257534246575343,20,Adults,151
Hard,0,correct,0.6215,0,213,11,1,Late,10¢,20.257534246575343,20,Adults,151
Hard,1,correct,0.7496,0,214,11,1,Late,10¢,20.257534246575343,20,Adults,151
Hard,1,correct,0.5418,0,215,11,1,Late,10¢,20.257534246575343,20,Adults,151
Hard,0,correct,0.6478,0,216,11,1,Late,10¢,20.257534246575343,20,Adults,151
Hard,1,correct,0.5878,0,217,11,1,Late,10¢,20.257534246575343,20,Adults,151
Hard,0,correct,0.5788,0,218,11,1,Late,10¢,20.257534246575343,20,Adults,151
Hard,0,correct,0.5003,0,219,11,1,Late,10¢,20.257534246575343,20,Adults,151
Hard,1,correct,0.544,0,220,11,1,Late,10¢,20.257534246575343,20,Adults,151
Hard,0,correct,0.7302,0,221,12,1,Late,1¢,20.257534246575343,20,Adults,151
Hard,1,correct,0.6726,0,222,12,1,Late,1¢,20.257534246575343,20,Adults,151
Hard,0,correct,0.6408,0,223,12,1,Late,1¢,20.257534246575343,20,Adults,151
Hard,0,correct,0.5783,0,224,12,1,Late,1¢,20.257534246575343,20,Adults,151
Hard,0,correct,0.6988,0,225,12,1,Late,1¢,20.257534246575343,20,Adults,151
Hard,0,correct,0.6214,0,226,12,1,Late,1¢,20.257534246575343,20,Adults,151
Hard,0,correct,0.6574,0,227,12,1,Late,1¢,20.257534246575343,20,Adults,151
Hard,1,correct,0.6063,0,228,12,1,Late,1¢,20.257534246575343,20,Adults,151
Hard,1,correct,0.7576,0,229,12,1,Late,1¢,20.257534246575343,20,Adults,151
Hard,1,correct,0.7101,0,230,12,1,Late,1¢,20.257534246575343,20,Adults,151
Hard,0,correct,1.0133,0,231,12,1,Late,1¢,20.257534246575343,20,Adults,151
Hard,0,correct,0.5258,0,232,12,1,Late,1¢,20.257534246575343,20,Adults,151
Hard,1,correct,0.6889,0,233,12,1,Late,1¢,20.257534246575343,20,Adults,151
Hard,1,correct,0.733,0,234,12,1,Late,1¢,20.257534246575343,20,Adults,151
Hard,1,correct,0.8562,0,235,12,1,Late,1¢,20.257534246575343,20,Adults,151
Hard,1,correct,0.5605,0,236,12,1,Late,1¢,20.257534246575343,20,Adults,151
Hard,1,correct,0.7587,0,237,12,1,Late,1¢,20.257534246575343,20,Adults,151
Hard,0,correct,0.543,0,238,12,1,Late,1¢,20.257534246575343,20,Adults,151
Hard,0,correct,0.7112,0,239,12,1,Late,1¢,20.257534246575343,20,Adults,151
Hard,1,correct,0.8796,0,240,12,1,Late,1¢,20.257534246575343,20,Adults,151
Easy,0,correct,0.9691,0,1,1,1,Early,10¢,19.208219178082192,19,Adults,152
Easy,0,correct,0.6757,0,2,1,1,Early,10¢,19.208219178082192,19,Adults,152
Easy,0,correct,0.9823,0,3,1,1,Early,10¢,19.208219178082192,19,Adults,152
Easy,0,correct,0.722,0,4,1,1,Early,10¢,19.208219178082192,19,Adults,152
Easy,1,correct,0.8421,0,5,1,1,Early,10¢,19.208219178082192,19,Adults,152
Easy,1,correct,0.7411,0,6,1,1,Early,10¢,19.208219178082192,19,Adults,152
Easy,0,correct,0.608,0,7,1,1,Early,10¢,19.208219178082192,19,Adults,152
Easy,0,correct,0.6581,0,8,1,1,Early,10¢,19.208219178082192,19,Adults,152
Easy,0,correct,0.5846,0,9,1,1,Early,10¢,19.208219178082192,19,Adults,152
Easy,0,correct,0.6803,0,10,1,1,Early,10¢,19.208219178082192,19,Adults,152
Easy,0,correct,0.6271,0,11,1,1,Early,10¢,19.208219178082192,19,Adults,152
Easy,0,correct,0.594,0,12,1,1,Early,10¢,19.208219178082192,19,Adults,152
Easy,0,correct,0.5085,0,13,1,1,Early,10¢,19.208219178082192,19,Adults,152
Easy,1,correct,1.1001,0,14,1,1,Early,10¢,19.208219178082192,19,Adults,152
Easy,1,correct,0.8427,0,15,1,1,Early,10¢,19.208219178082192,19,Adults,152
Easy,0,correct,0.5981,0,16,1,1,Early,10¢,19.208219178082192,19,Adults,152
Easy,0,correct,0.6381,0,17,1,1,Early,10¢,19.208219178082192,19,Adults,152
Easy,0,correct,0.5748,0,18,1,1,Early,10¢,19.208219178082192,19,Adults,152
Easy,0,correct,0.866,0,19,1,1,Early,10¢,19.208219178082192,19,Adults,152
Easy,0,correct,0.7268,0,20,1,1,Early,10¢,19.208219178082192,19,Adults,152
Easy,0,correct,0.8532,0,21,2,1,Early,1¢,19.208219178082192,19,Adults,152
Easy,0,correct,0.6303,0,22,2,1,Early,1¢,19.208219178082192,19,Adults,152
Easy,1,correct,0.9867,0,23,2,1,Early,1¢,19.208219178082192,19,Adults,152
Easy,0,correct,0.7166,0,24,2,1,Early,1¢,19.208219178082192,19,Adults,152
Easy,1,correct,0.6853,0,25,2,1,Early,1¢,19.208219178082192,19,Adults,152
Easy,0,correct,0.7284,0,26,2,1,Early,1¢,19.208219178082192,19,Adults,152
Easy,0,correct,0.6092,0,27,2,1,Early,1¢,19.208219178082192,19,Adults,152
Easy,0,correct,0.5497,0,28,2,1,Early,1¢,19.208219178082192,19,Adults,152
Easy,0,correct,0.5923,0,29,2,1,Early,1¢,19.208219178082192,19,Adults,152
Easy,0,correct,0.5654,0,30,2,1,Early,1¢,19.208219178082192,19,Adults,152
Easy,0,correct,0.5689,0,31,2,1,Early,1¢,19.208219178082192,19,Adults,152
Easy,0,correct,0.6098,0,32,2,1,Early,1¢,19.208219178082192,19,Adults,152
Easy,1,correct,1.0646,0,33,2,1,Early,1¢,19.208219178082192,19,Adults,152
Easy,0,correct,0.883,0,34,2,1,Early,1¢,19.208219178082192,19,Adults,152
Easy,0,correct,0.775,0,35,2,1,Early,1¢,19.208219178082192,19,Adults,152
Easy,1,correct,0.7739,0,36,2,1,Early,1¢,19.208219178082192,19,Adults,152
Easy,0,correct,0.5945,0,37,2,1,Early,1¢,19.208219178082192,19,Adults,152
Easy,0,correct,0.532,0,38,2,1,Early,1¢,19.208219178082192,19,Adults,152
Easy,0,correct,0.6601,0,39,2,1,Early,1¢,19.208219178082192,19,Adults,152
Easy,0,correct,0.7282,0,40,2,1,Early,1¢,19.208219178082192,19,Adults,152
Hard,0,correct,0.927,0,41,3,1,Early,10¢,19.208219178082192,19,Adults,152
Hard,1,correct,0.881,0,42,3,1,Early,10¢,19.208219178082192,19,Adults,152
Hard,1,correct,0.7948,0,43,3,1,Early,10¢,19.208219178082192,19,Adults,152
Hard,0,correct,0.5131,0,44,3,1,Early,10¢,19.208219178082192,19,Adults,152
Hard,1,correct,0.9094,0,45,3,1,Early,10¢,19.208219178082192,19,Adults,152
Hard,0,correct,0.8,0,46,3,1,Early,10¢,19.208219178082192,19,Adults,152
Hard,1,correct,0.7791,0,47,3,1,Early,10¢,19.208219178082192,19,Adults,152
Hard,0,correct,0.6095,0,48,3,1,Early,10¢,19.208219178082192,19,Adults,152
Hard,0,correct,0.7065,0,49,3,1,Early,10¢,19.208219178082192,19,Adults,152
Hard,1,correct,0.7036,0,50,3,1,Early,10¢,19.208219178082192,19,Adults,152
Hard,1,correct,0.8495,0,51,3,1,Early,10¢,19.208219178082192,19,Adults,152
Hard,1,correct,0.7235,0,52,3,1,Early,10¢,19.208219178082192,19,Adults,152
Hard,0,correct,0.8093,0,53,3,1,Early,10¢,19.208219178082192,19,Adults,152
Hard,0,correct,0.9179,0,54,3,1,Early,10¢,19.208219178082192,19,Adults,152
Hard,1,correct,0.6676,0,55,3,1,Early,10¢,19.208219178082192,19,Adults,152
Hard,1,correct,0.7872,0,56,3,1,Early,10¢,19.208219178082192,19,Adults,152
Hard,1,correct,0.6262,0,57,3,1,Early,10¢,19.208219178082192,19,Adults,152
Hard,0,correct,0.5808,0,58,3,1,Early,10¢,19.208219178082192,19,Adults,152
Hard,0,correct,0.6815,0,59,3,1,Early,10¢,19.208219178082192,19,Adults,152
Hard,0,correct,0.5805,0,60,3,1,Early,10¢,19.208219178082192,19,Adults,152
Hard,0,correct,0.798,0,61,4,1,Early,1¢,19.208219178082192,19,Adults,152
Hard,0,correct,0.5986,0,62,4,1,Early,1¢,19.208219178082192,19,Adults,152
Hard,1,correct,1.0437,0,63,4,1,Early,1¢,19.208219178082192,19,Adults,152
Hard,0,correct,0.8392,0,64,4,1,Early,1¢,19.208219178082192,19,Adults,152
Hard,0,correct,0.8101,0,65,4,1,Early,1¢,19.208219178082192,19,Adults,152
Hard,0,correct,0.6418,0,66,4,1,Early,1¢,19.208219178082192,19,Adults,152
Hard,0,correct,0.6207,0,67,4,1,Early,1¢,19.208219178082192,19,Adults,152
Hard,1,correct,0.5803,0,68,4,1,Early,1¢,19.208219178082192,19,Adults,152
Hard,1,correct,0.9599,0,69,4,1,Early,1¢,19.208219178082192,19,Adults,152
Hard,1,correct,0.6758,0,70,4,1,Early,1¢,19.208219178082192,19,Adults,152
Hard,1,correct,0.9083,0,71,4,1,Early,1¢,19.208219178082192,19,Adults,152
Hard,1,correct,0.9371,0,72,4,1,Early,1¢,19.208219178082192,19,Adults,152
Hard,0,correct,0.7078,0,73,4,1,Early,1¢,19.208219178082192,19,Adults,152
Hard,1,correct,0.7764,0,74,4,1,Early,1¢,19.208219178082192,19,Adults,152
Hard,1,correct,0.6122,0,75,4,1,Early,1¢,19.208219178082192,19,Adults,152
Hard,0,correct,0.6588,0,76,4,1,Early,1¢,19.208219178082192,19,Adults,152
Hard,0,correct,0.8156,0,77,4,1,Early,1¢,19.208219178082192,19,Adults,152
Hard,1,correct,1.0512,0,78,4,1,Early,1¢,19.208219178082192,19,Adults,152
Hard,0,correct,0.7468,0,79,4,1,Early,1¢,19.208219178082192,19,Adults,152
Hard,1,correct,0.6756,0,80,4,1,Early,1¢,19.208219178082192,19,Adults,152
Easy,0,correct,0.6761,0,81,5,1,Middle,1¢,19.208219178082192,19,Adults,152
Easy,0,correct,0.5158,0,82,5,1,Middle,1¢,19.208219178082192,19,Adults,152
Easy,0,correct,0.5347,0,83,5,1,Middle,1¢,19.208219178082192,19,Adults,152
Easy,0,correct,0.6421,0,84,5,1,Middle,1¢,19.208219178082192,19,Adults,152
Easy,0,correct,0.6505,0,85,5,1,Middle,1¢,19.208219178082192,19,Adults,152
Easy,0,correct,0.4815,0,86,5,1,Middle,1¢,19.208219178082192,19,Adults,152
Easy,0,correct,0.5467,0,87,5,1,Middle,1¢,19.208219178082192,19,Adults,152
Easy,0,correct,0.5331,0,88,5,1,Middle,1¢,19.208219178082192,19,Adults,152
Easy,0,correct,0.5368,0,89,5,1,Middle,1¢,19.208219178082192,19,Adults,152
Easy,1,too_slow,NA,1,90,5,NA,Middle,1¢,19.208219178082192,19,Adults,152
Easy,1,correct,0.7946,0,91,5,1,Middle,1¢,19.208219178082192,19,Adults,152
Easy,0,correct,0.5997,0,92,5,1,Middle,1¢,19.208219178082192,19,Adults,152
Easy,0,correct,0.6623,0,93,5,1,Middle,1¢,19.208219178082192,19,Adults,152
Easy,0,correct,0.5779,0,94,5,1,Middle,1¢,19.208219178082192,19,Adults,152
Easy,0,correct,0.6924,0,95,5,1,Middle,1¢,19.208219178082192,19,Adults,152
Easy,0,correct,0.5916,0,96,5,1,Middle,1¢,19.208219178082192,19,Adults,152
Easy,1,correct,0.8591,0,97,5,1,Middle,1¢,19.208219178082192,19,Adults,152
Easy,1,correct,0.6079,0,98,5,1,Middle,1¢,19.208219178082192,19,Adults,152
Easy,0,correct,0.558,0,99,5,1,Middle,1¢,19.208219178082192,19,Adults,152
Easy,0,correct,0.5603,0,100,5,1,Middle,1¢,19.208219178082192,19,Adults,152
Easy,0,correct,0.7304,0,101,6,1,Middle,10¢,19.208219178082192,19,Adults,152
Easy,1,correct,0.802,0,102,6,1,Middle,10¢,19.208219178082192,19,Adults,152
Easy,0,correct,0.6755,0,103,6,1,Middle,10¢,19.208219178082192,19,Adults,152
Easy,1,correct,0.6269,0,104,6,1,Middle,10¢,19.208219178082192,19,Adults,152
Easy,0,correct,0.5157,0,105,6,1,Middle,10¢,19.208219178082192,19,Adults,152
Easy,0,correct,0.5744,0,106,6,1,Middle,10¢,19.208219178082192,19,Adults,152
Easy,0,correct,0.6258,0,107,6,1,Middle,10¢,19.208219178082192,19,Adults,152
Easy,0,correct,0.5786,0,108,6,1,Middle,10¢,19.208219178082192,19,Adults,152
Easy,0,correct,0.4954,0,109,6,1,Middle,10¢,19.208219178082192,19,Adults,152
Easy,1,correct,0.8801,0,110,6,1,Middle,10¢,19.208219178082192,19,Adults,152
Easy,1,correct,0.5843,0,111,6,1,Middle,10¢,19.208219178082192,19,Adults,152
Easy,0,correct,0.4587,0,112,6,1,Middle,10¢,19.208219178082192,19,Adults,152
Easy,0,correct,0.4914,0,113,6,1,Middle,10¢,19.208219178082192,19,Adults,152
Easy,0,correct,0.4318,0,114,6,1,Middle,10¢,19.208219178082192,19,Adults,152
Easy,0,correct,0.6097,0,115,6,1,Middle,10¢,19.208219178082192,19,Adults,152
Easy,0,correct,0.4445,0,116,6,1,Middle,10¢,19.208219178082192,19,Adults,152
Easy,0,correct,0.5436,0,117,6,1,Middle,10¢,19.208219178082192,19,Adults,152
Easy,0,correct,0.5697,0,118,6,1,Middle,10¢,19.208219178082192,19,Adults,152
Easy,0,correct,0.4989,0,119,6,1,Middle,10¢,19.208219178082192,19,Adults,152
Easy,0,correct,0.498,0,120,6,1,Middle,10¢,19.208219178082192,19,Adults,152
Hard,0,correct,0.8497,0,121,7,1,Middle,1¢,19.208219178082192,19,Adults,152
Hard,0,correct,0.5011,0,122,7,1,Middle,1¢,19.208219178082192,19,Adults,152
Hard,0,correct,0.6452,0,123,7,1,Middle,1¢,19.208219178082192,19,Adults,152
Hard,0,correct,0.5877,0,124,7,1,Middle,1¢,19.208219178082192,19,Adults,152
Hard,1,correct,0.7936,0,125,7,1,Middle,1¢,19.208219178082192,19,Adults,152
Hard,1,correct,0.5769,0,126,7,1,Middle,1¢,19.208219178082192,19,Adults,152
Hard,0,correct,0.5331,0,127,7,1,Middle,1¢,19.208219178082192,19,Adults,152
Hard,1,correct,1.0351,0,128,7,1,Middle,1¢,19.208219178082192,19,Adults,152
Hard,1,correct,0.6607,0,129,7,1,Middle,1¢,19.208219178082192,19,Adults,152
Hard,1,correct,0.9988,0,130,7,1,Middle,1¢,19.208219178082192,19,Adults,152
Hard,0,correct,0.9142,0,131,7,1,Middle,1¢,19.208219178082192,19,Adults,152
Hard,1,correct,0.9668,0,132,7,1,Middle,1¢,19.208219178082192,19,Adults,152
Hard,1,correct,0.9935,0,133,7,1,Middle,1¢,19.208219178082192,19,Adults,152
Hard,0,correct,0.9599,0,134,7,1,Middle,1¢,19.208219178082192,19,Adults,152
Hard,0,correct,0.681,0,135,7,1,Middle,1¢,19.208219178082192,19,Adults,152
Hard,1,correct,0.6825,0,136,7,1,Middle,1¢,19.208219178082192,19,Adults,152
Hard,0,correct,0.6818,0,137,7,1,Middle,1¢,19.208219178082192,19,Adults,152
Hard,0,correct,0.6931,0,138,7,1,Middle,1¢,19.208219178082192,19,Adults,152
Hard,1,correct,0.7452,0,139,7,1,Middle,1¢,19.208219178082192,19,Adults,152
Hard,1,correct,0.5992,0,140,7,1,Middle,1¢,19.208219178082192,19,Adults,152
Hard,0,correct,0.7889,0,141,8,1,Middle,10¢,19.208219178082192,19,Adults,152
Hard,1,correct,0.8771,0,142,8,1,Middle,10¢,19.208219178082192,19,Adults,152
Hard,0,correct,0.916,0,143,8,1,Middle,10¢,19.208219178082192,19,Adults,152
Hard,0,correct,0.5432,0,144,8,1,Middle,10¢,19.208219178082192,19,Adults,152
Hard,1,correct,0.8733,0,145,8,1,Middle,10¢,19.208219178082192,19,Adults,152
Hard,1,correct,0.7927,0,146,8,1,Middle,10¢,19.208219178082192,19,Adults,152
Hard,0,correct,0.7097,0,147,8,1,Middle,10¢,19.208219178082192,19,Adults,152
Hard,0,correct,0.883,0,148,8,1,Middle,10¢,19.208219178082192,19,Adults,152
Hard,1,correct,0.6442,0,149,8,1,Middle,10¢,19.208219178082192,19,Adults,152
Hard,1,correct,0.6767,0,150,8,1,Middle,10¢,19.208219178082192,19,Adults,152
Hard,1,correct,0.6975,0,151,8,1,Middle,10¢,19.208219178082192,19,Adults,152
Hard,1,correct,0.7606,0,152,8,1,Middle,10¢,19.208219178082192,19,Adults,152
Hard,0,correct,0.6983,0,153,8,1,Middle,10¢,19.208219178082192,19,Adults,152
Hard,0,correct,0.8166,0,154,8,1,Middle,10¢,19.208219178082192,19,Adults,152
Hard,1,correct,0.71,0,155,8,1,Middle,10¢,19.208219178082192,19,Adults,152
Hard,1,correct,0.6795,0,156,8,1,Middle,10¢,19.208219178082192,19,Adults,152
Hard,0,correct,0.6916,0,157,8,1,Middle,10¢,19.208219178082192,19,Adults,152
Hard,1,correct,0.6444,0,158,8,1,Middle,10¢,19.208219178082192,19,Adults,152
Hard,0,correct,0.5612,0,159,8,1,Middle,10¢,19.208219178082192,19,Adults,152
Hard,0,correct,0.5878,0,160,8,1,Middle,10¢,19.208219178082192,19,Adults,152
Easy,0,correct,1.0127,0,161,9,1,Late,10¢,19.208219178082192,19,Adults,152
Easy,0,correct,0.532,0,162,9,1,Late,10¢,19.208219178082192,19,Adults,152
Easy,0,correct,0.6451,0,163,9,1,Late,10¢,19.208219178082192,19,Adults,152
Easy,0,correct,0.4765,0,164,9,1,Late,10¢,19.208219178082192,19,Adults,152
Easy,0,correct,0.4758,0,165,9,1,Late,10¢,19.208219178082192,19,Adults,152
Easy,0,correct,0.6098,0,166,9,1,Late,10¢,19.208219178082192,19,Adults,152
Easy,1,too_slow,NA,1,167,9,NA,Late,10¢,19.208219178082192,19,Adults,152
Easy,0,correct,0.7945,0,168,9,1,Late,10¢,19.208219178082192,19,Adults,152
Easy,0,correct,0.6878,0,169,9,1,Late,10¢,19.208219178082192,19,Adults,152
Easy,0,correct,0.703,0,170,9,1,Late,10¢,19.208219178082192,19,Adults,152
Easy,0,correct,0.6504,0,171,9,1,Late,10¢,19.208219178082192,19,Adults,152
Easy,1,correct,0.6763,0,172,9,1,Late,10¢,19.208219178082192,19,Adults,152
Easy,0,correct,0.668,0,173,9,1,Late,10¢,19.208219178082192,19,Adults,152
Easy,1,correct,0.6495,0,174,9,1,Late,10¢,19.208219178082192,19,Adults,152
Easy,0,correct,1.083,0,175,9,1,Late,10¢,19.208219178082192,19,Adults,152
Easy,1,correct,0.6107,0,176,9,1,Late,10¢,19.208219178082192,19,Adults,152
Easy,0,correct,0.6479,0,177,9,1,Late,10¢,19.208219178082192,19,Adults,152
Easy,0,correct,0.5182,0,178,9,1,Late,10¢,19.208219178082192,19,Adults,152
Easy,0,correct,0.5461,0,179,9,1,Late,10¢,19.208219178082192,19,Adults,152
Easy,0,correct,0.6045,0,180,9,1,Late,10¢,19.208219178082192,19,Adults,152
Easy,0,correct,0.7852,0,181,10,1,Late,1¢,19.208219178082192,19,Adults,152
Easy,0,correct,0.5808,0,182,10,1,Late,1¢,19.208219178082192,19,Adults,152
Easy,0,correct,0.5175,0,183,10,1,Late,1¢,19.208219178082192,19,Adults,152
Easy,0,correct,0.4975,0,184,10,1,Late,1¢,19.208219178082192,19,Adults,152
Easy,1,correct,1.0124,0,185,10,1,Late,1¢,19.208219178082192,19,Adults,152
Easy,1,correct,0.5769,0,186,10,1,Late,1¢,19.208219178082192,19,Adults,152
Easy,0,correct,0.5455,0,187,10,1,Late,1¢,19.208219178082192,19,Adults,152
Easy,0,correct,0.6286,0,188,10,1,Late,1¢,19.208219178082192,19,Adults,152
Easy,0,correct,0.4838,0,189,10,1,Late,1¢,19.208219178082192,19,Adults,152
Easy,0,correct,0.6363,0,190,10,1,Late,1¢,19.208219178082192,19,Adults,152
Easy,0,correct,0.65,0,191,10,1,Late,1¢,19.208219178082192,19,Adults,152
Easy,0,correct,0.5487,0,192,10,1,Late,1¢,19.208219178082192,19,Adults,152
Easy,0,correct,0.5657,0,193,10,1,Late,1¢,19.208219178082192,19,Adults,152
Easy,0,correct,0.5767,0,194,10,1,Late,1¢,19.208219178082192,19,Adults,152
Easy,1,correct,1.0425,0,195,10,1,Late,1¢,19.208219178082192,19,Adults,152
Easy,0,correct,0.9081,0,196,10,1,Late,1¢,19.208219178082192,19,Adults,152
Easy,1,correct,0.6418,0,197,10,1,Late,1¢,19.208219178082192,19,Adults,152
Easy,0,correct,0.5909,0,198,10,1,Late,1¢,19.208219178082192,19,Adults,152
Easy,0,correct,0.7097,0,199,10,1,Late,1¢,19.208219178082192,19,Adults,152
Easy,0,correct,0.7089,0,200,10,1,Late,1¢,19.208219178082192,19,Adults,152
Hard,0,correct,0.7873,0,201,11,1,Late,10¢,19.208219178082192,19,Adults,152
Hard,1,correct,0.7575,0,202,11,1,Late,10¢,19.208219178082192,19,Adults,152
Hard,0,correct,0.9021,0,203,11,1,Late,10¢,19.208219178082192,19,Adults,152
Hard,0,correct,0.6563,0,204,11,1,Late,10¢,19.208219178082192,19,Adults,152
Hard,1,correct,0.594,0,205,11,1,Late,10¢,19.208219178082192,19,Adults,152
Hard,1,correct,0.9248,0,206,11,1,Late,10¢,19.208219178082192,19,Adults,152
Hard,0,correct,0.6438,0,207,11,1,Late,10¢,19.208219178082192,19,Adults,152
Hard,1,correct,0.5272,0,208,11,1,Late,10¢,19.208219178082192,19,Adults,152
Hard,0,correct,0.6009,0,209,11,1,Late,10¢,19.208219178082192,19,Adults,152
Hard,0,correct,0.5164,0,210,11,1,Late,10¢,19.208219178082192,19,Adults,152
Hard,1,correct,0.8757,0,211,11,1,Late,10¢,19.208219178082192,19,Adults,152
Hard,1,correct,0.7823,0,212,11,1,Late,10¢,19.208219178082192,19,Adults,152
Hard,0,correct,0.6322,0,213,11,1,Late,10¢,19.208219178082192,19,Adults,152
Hard,1,correct,0.7435,0,214,11,1,Late,10¢,19.208219178082192,19,Adults,152
Hard,0,correct,0.7689,0,215,11,1,Late,10¢,19.208219178082192,19,Adults,152
Hard,0,correct,1.0964,0,216,11,1,Late,10¢,19.208219178082192,19,Adults,152
Hard,1,correct,0.5535,0,217,11,1,Late,10¢,19.208219178082192,19,Adults,152
Hard,1,correct,0.9025,0,218,11,1,Late,10¢,19.208219178082192,19,Adults,152
Hard,0,correct,0.9812,0,219,11,1,Late,10¢,19.208219178082192,19,Adults,152
Hard,1,correct,0.8935,0,220,11,1,Late,10¢,19.208219178082192,19,Adults,152
Hard,0,correct,0.7151,0,221,12,1,Late,1¢,19.208219178082192,19,Adults,152
Hard,0,correct,0.577,0,222,12,1,Late,1¢,19.208219178082192,19,Adults,152
Hard,1,correct,0.9604,0,223,12,1,Late,1¢,19.208219178082192,19,Adults,152
Hard,1,correct,0.6112,0,224,12,1,Late,1¢,19.208219178082192,19,Adults,152
Hard,1,correct,0.952,0,225,12,1,Late,1¢,19.208219178082192,19,Adults,152
Hard,0,correct,1.1879,0,226,12,1,Late,1¢,19.208219178082192,19,Adults,152
Hard,0,correct,0.7931,0,227,12,1,Late,1¢,19.208219178082192,19,Adults,152
Hard,0,correct,0.7774,0,228,12,1,Late,1¢,19.208219178082192,19,Adults,152
Hard,1,correct,0.6366,0,229,12,1,Late,1¢,19.208219178082192,19,Adults,152
Hard,1,correct,0.7626,0,230,12,1,Late,1¢,19.208219178082192,19,Adults,152
Hard,1,correct,0.6418,0,231,12,1,Late,1¢,19.208219178082192,19,Adults,152
Hard,0,correct,0.5771,0,232,12,1,Late,1¢,19.208219178082192,19,Adults,152
Hard,0,correct,0.5795,0,233,12,1,Late,1¢,19.208219178082192,19,Adults,152
Hard,0,correct,0.5188,0,234,12,1,Late,1¢,19.208219178082192,19,Adults,152
Hard,1,correct,0.908,0,235,12,1,Late,1¢,19.208219178082192,19,Adults,152
Hard,1,correct,0.6106,0,236,12,1,Late,1¢,19.208219178082192,19,Adults,152
Hard,0,correct,0.5682,0,237,12,1,Late,1¢,19.208219178082192,19,Adults,152
Hard,1,correct,0.8103,0,238,12,1,Late,1¢,19.208219178082192,19,Adults,152
Hard,0,too_slow,NA,1,239,12,NA,Late,1¢,19.208219178082192,19,Adults,152
Hard,1,correct,1.0838,0,240,12,1,Late,1¢,19.208219178082192,19,Adults,152
Easy,0,correct,0.7488,0,1,1,1,Early,10¢,18.136986301369863,18,Adults,153
Easy,0,correct,0.5484,0,2,1,1,Early,10¢,18.136986301369863,18,Adults,153
Easy,0,correct,0.5812,0,3,1,1,Early,10¢,18.136986301369863,18,Adults,153
Easy,0,correct,0.5324,0,4,1,1,Early,10¢,18.136986301369863,18,Adults,153
Easy,1,correct,0.8967,0,5,1,1,Early,10¢,18.136986301369863,18,Adults,153
Easy,0,correct,0.5953,0,6,1,1,Early,10¢,18.136986301369863,18,Adults,153
Easy,1,correct,0.5185,0,7,1,1,Early,10¢,18.136986301369863,18,Adults,153
Easy,0,correct,0.4684,0,8,1,1,Early,10¢,18.136986301369863,18,Adults,153
Easy,1,correct,0.9373,0,9,1,1,Early,10¢,18.136986301369863,18,Adults,153
Easy,0,correct,0.935,0,10,1,1,Early,10¢,18.136986301369863,18,Adults,153
Easy,0,too_slow,NA,1,11,1,NA,Early,10¢,18.136986301369863,18,Adults,153
Easy,0,correct,0.6714,0,12,1,1,Early,10¢,18.136986301369863,18,Adults,153
Easy,0,correct,0.6513,0,13,1,1,Early,10¢,18.136986301369863,18,Adults,153
Easy,0,correct,0.6008,0,14,1,1,Early,10¢,18.136986301369863,18,Adults,153
Easy,0,correct,0.6026,0,15,1,1,Early,10¢,18.136986301369863,18,Adults,153
Easy,0,correct,0.6369,0,16,1,1,Early,10¢,18.136986301369863,18,Adults,153
Easy,1,correct,0.771,0,17,1,1,Early,10¢,18.136986301369863,18,Adults,153
Easy,0,correct,0.7509,0,18,1,1,Early,10¢,18.136986301369863,18,Adults,153
Easy,0,correct,0.5507,0,19,1,1,Early,10¢,18.136986301369863,18,Adults,153
Easy,0,correct,0.5674,0,20,1,1,Early,10¢,18.136986301369863,18,Adults,153
Easy,0,correct,0.7078,0,21,2,1,Early,1¢,18.136986301369863,18,Adults,153
Easy,0,correct,0.601,0,22,2,1,Early,1¢,18.136986301369863,18,Adults,153
Easy,0,correct,0.7229,0,23,2,1,Early,1¢,18.136986301369863,18,Adults,153
Easy,0,correct,0.755,0,24,2,1,Early,1¢,18.136986301369863,18,Adults,153
Easy,0,correct,0.5576,0,25,2,1,Early,1¢,18.136986301369863,18,Adults,153
Easy,0,correct,0.5725,0,26,2,1,Early,1¢,18.136986301369863,18,Adults,153
Easy,0,correct,0.538,0,27,2,1,Early,1¢,18.136986301369863,18,Adults,153
Easy,0,correct,0.5043,0,28,2,1,Early,1¢,18.136986301369863,18,Adults,153
Easy,0,correct,0.5223,0,29,2,1,Early,1¢,18.136986301369863,18,Adults,153
Easy,0,correct,0.5822,0,30,2,1,Early,1¢,18.136986301369863,18,Adults,153
Easy,1,correct,0.744,0,31,2,1,Early,1¢,18.136986301369863,18,Adults,153
Easy,1,correct,0.6187,0,32,2,1,Early,1¢,18.136986301369863,18,Adults,153
Easy,0,correct,0.5172,0,33,2,1,Early,1¢,18.136986301369863,18,Adults,153
Easy,1,correct,1.0158,0,34,2,1,Early,1¢,18.136986301369863,18,Adults,153
Easy,0,too_slow,NA,1,35,2,NA,Early,1¢,18.136986301369863,18,Adults,153
Easy,0,correct,1.1508,0,36,2,1,Early,1¢,18.136986301369863,18,Adults,153
Easy,1,correct,0.5417,0,37,2,1,Early,1¢,18.136986301369863,18,Adults,153
Easy,0,correct,0.5332,0,38,2,1,Early,1¢,18.136986301369863,18,Adults,153
Easy,0,correct,0.6875,0,39,2,1,Early,1¢,18.136986301369863,18,Adults,153
Easy,0,correct,0.7858,0,40,2,1,Early,1¢,18.136986301369863,18,Adults,153
Hard,0,correct,0.6228,0,41,3,1,Early,10¢,18.136986301369863,18,Adults,153
Hard,1,correct,0.8366,0,42,3,1,Early,10¢,18.136986301369863,18,Adults,153
Hard,0,correct,0.6715,0,43,3,1,Early,10¢,18.136986301369863,18,Adults,153
Hard,0,correct,0.9408,0,44,3,1,Early,10¢,18.136986301369863,18,Adults,153
Hard,1,correct,0.605,0,45,3,1,Early,10¢,18.136986301369863,18,Adults,153
Hard,1,correct,0.7411,0,46,3,1,Early,10¢,18.136986301369863,18,Adults,153
Hard,0,correct,0.787,0,47,3,1,Early,10¢,18.136986301369863,18,Adults,153
Hard,0,correct,0.6088,0,48,3,1,Early,10¢,18.136986301369863,18,Adults,153
Hard,1,correct,0.5228,0,49,3,1,Early,10¢,18.136986301369863,18,Adults,153
Hard,1,correct,0.6885,0,50,3,1,Early,10¢,18.136986301369863,18,Adults,153
Hard,1,correct,0.7378,0,51,3,1,Early,10¢,18.136986301369863,18,Adults,153
Hard,0,correct,0.5044,0,52,3,1,Early,10¢,18.136986301369863,18,Adults,153
Hard,1,correct,0.7087,0,53,3,1,Early,10¢,18.136986301369863,18,Adults,153
Hard,1,correct,0.5862,0,54,3,1,Early,10¢,18.136986301369863,18,Adults,153
Hard,0,correct,0.4721,0,55,3,1,Early,10¢,18.136986301369863,18,Adults,153
Hard,1,correct,0.7563,0,56,3,1,Early,10¢,18.136986301369863,18,Adults,153
Hard,0,correct,1.1081,0,57,3,1,Early,10¢,18.136986301369863,18,Adults,153
Hard,1,correct,0.739,0,58,3,1,Early,10¢,18.136986301369863,18,Adults,153
Hard,0,correct,0.5553,0,59,3,1,Early,10¢,18.136986301369863,18,Adults,153
Hard,0,correct,0.5212,0,60,3,1,Early,10¢,18.136986301369863,18,Adults,153
Hard,0,correct,0.691,0,61,4,1,Early,1¢,18.136986301369863,18,Adults,153
Hard,0,correct,0.4847,0,62,4,1,Early,1¢,18.136986301369863,18,Adults,153
Hard,1,correct,0.7516,0,63,4,1,Early,1¢,18.136986301369863,18,Adults,153
Hard,0,correct,0.5724,0,64,4,1,Early,1¢,18.136986301369863,18,Adults,153
Hard,0,correct,0.6596,0,65,4,1,Early,1¢,18.136986301369863,18,Adults,153
Hard,1,correct,0.7568,0,66,4,1,Early,1¢,18.136986301369863,18,Adults,153
Hard,0,correct,0.5017,0,67,4,1,Early,1¢,18.136986301369863,18,Adults,153
Hard,1,correct,0.8585,0,68,4,1,Early,1¢,18.136986301369863,18,Adults,153
Hard,1,correct,0.5742,0,69,4,1,Early,1¢,18.136986301369863,18,Adults,153
Hard,1,correct,0.672,0,70,4,1,Early,1¢,18.136986301369863,18,Adults,153
Hard,0,correct,0.7349,0,71,4,1,Early,1¢,18.136986301369863,18,Adults,153
Hard,1,correct,0.6388,0,72,4,1,Early,1¢,18.136986301369863,18,Adults,153
Hard,0,correct,0.608,0,73,4,1,Early,1¢,18.136986301369863,18,Adults,153
Hard,1,correct,1.1651,0,74,4,1,Early,1¢,18.136986301369863,18,Adults,153
Hard,1,correct,0.5218,0,75,4,1,Early,1¢,18.136986301369863,18,Adults,153
Hard,0,correct,0.5017,0,76,4,1,Early,1¢,18.136986301369863,18,Adults,153
Hard,1,correct,0.7532,0,77,4,1,Early,1¢,18.136986301369863,18,Adults,153
Hard,0,correct,0.6061,0,78,4,1,Early,1¢,18.136986301369863,18,Adults,153
Hard,1,correct,0.558,0,79,4,1,Early,1¢,18.136986301369863,18,Adults,153
Hard,0,correct,0.5259,0,80,4,1,Early,1¢,18.136986301369863,18,Adults,153
Easy,0,correct,0.7512,0,81,5,1,Middle,1¢,18.136986301369863,18,Adults,153
Easy,1,correct,0.7854,0,82,5,1,Middle,1¢,18.136986301369863,18,Adults,153
Easy,0,correct,0.8547,0,83,5,1,Middle,1¢,18.136986301369863,18,Adults,153
Easy,0,correct,0.6052,0,84,5,1,Middle,1¢,18.136986301369863,18,Adults,153
Easy,0,correct,0.5903,0,85,5,1,Middle,1¢,18.136986301369863,18,Adults,153
Easy,0,correct,0.6014,0,86,5,1,Middle,1¢,18.136986301369863,18,Adults,153
Easy,1,correct,0.7184,0,87,5,1,Middle,1¢,18.136986301369863,18,Adults,153
Easy,0,correct,0.5342,0,88,5,1,Middle,1¢,18.136986301369863,18,Adults,153
Easy,1,correct,0.6537,0,89,5,1,Middle,1¢,18.136986301369863,18,Adults,153
Easy,0,correct,0.7558,0,90,5,1,Middle,1¢,18.136986301369863,18,Adults,153
Easy,0,correct,0.6572,0,91,5,1,Middle,1¢,18.136986301369863,18,Adults,153
Easy,0,correct,0.6521,0,92,5,1,Middle,1¢,18.136986301369863,18,Adults,153
Easy,0,correct,0.6371,0,93,5,1,Middle,1¢,18.136986301369863,18,Adults,153
Easy,0,correct,0.7884,0,94,5,1,Middle,1¢,18.136986301369863,18,Adults,153
Easy,0,correct,0.6017,0,95,5,1,Middle,1¢,18.136986301369863,18,Adults,153
Easy,0,correct,0.6002,0,96,5,1,Middle,1¢,18.136986301369863,18,Adults,153
Easy,0,correct,0.9395,0,97,5,1,Middle,1¢,18.136986301369863,18,Adults,153
Easy,0,correct,0.7386,0,98,5,1,Middle,1¢,18.136986301369863,18,Adults,153
Easy,0,correct,0.5731,0,99,5,1,Middle,1¢,18.136986301369863,18,Adults,153
Easy,1,correct,0.5742,0,100,5,1,Middle,1¢,18.136986301369863,18,Adults,153
Easy,0,correct,0.7,0,101,6,1,Middle,10¢,18.136986301369863,18,Adults,153
Easy,0,correct,0.6871,0,102,6,1,Middle,10¢,18.136986301369863,18,Adults,153
Easy,0,correct,0.5582,0,103,6,1,Middle,10¢,18.136986301369863,18,Adults,153
Easy,0,correct,0.5525,0,104,6,1,Middle,10¢,18.136986301369863,18,Adults,153
Easy,1,correct,0.84,0,105,6,1,Middle,10¢,18.136986301369863,18,Adults,153
Easy,0,correct,0.6259,0,106,6,1,Middle,10¢,18.136986301369863,18,Adults,153
Easy,0,correct,0.5874,0,107,6,1,Middle,10¢,18.136986301369863,18,Adults,153
Easy,0,correct,0.5897,0,108,6,1,Middle,10¢,18.136986301369863,18,Adults,153
Easy,0,correct,0.5531,0,109,6,1,Middle,10¢,18.136986301369863,18,Adults,153
Easy,0,correct,0.753,0,110,6,1,Middle,10¢,18.136986301369863,18,Adults,153
Easy,1,correct,0.6754,0,111,6,1,Middle,10¢,18.136986301369863,18,Adults,153
Easy,0,correct,0.5067,0,112,6,1,Middle,10¢,18.136986301369863,18,Adults,153
Easy,0,correct,0.5198,0,113,6,1,Middle,10¢,18.136986301369863,18,Adults,153
Easy,0,correct,0.5014,0,114,6,1,Middle,10¢,18.136986301369863,18,Adults,153
Easy,1,correct,0.7348,0,115,6,1,Middle,10¢,18.136986301369863,18,Adults,153
Easy,1,correct,0.6363,0,116,6,1,Middle,10¢,18.136986301369863,18,Adults,153
Easy,0,correct,0.508,0,117,6,1,Middle,10¢,18.136986301369863,18,Adults,153
Easy,0,correct,0.5454,0,118,6,1,Middle,10¢,18.136986301369863,18,Adults,153
Easy,0,correct,0.7382,0,119,6,1,Middle,10¢,18.136986301369863,18,Adults,153
Easy,0,correct,0.5536,0,120,6,1,Middle,10¢,18.136986301369863,18,Adults,153
Hard,0,correct,0.7395,0,121,7,1,Middle,1¢,18.136986301369863,18,Adults,153
Hard,1,correct,0.705,0,122,7,1,Middle,1¢,18.136986301369863,18,Adults,153
Hard,0,correct,0.7053,0,123,7,1,Middle,1¢,18.136986301369863,18,Adults,153
Hard,1,correct,0.5719,0,124,7,1,Middle,1¢,18.136986301369863,18,Adults,153
Hard,0,correct,1.1902,0,125,7,1,Middle,1¢,18.136986301369863,18,Adults,153
Hard,0,correct,0.5077,0,126,7,1,Middle,1¢,18.136986301369863,18,Adults,153
Hard,1,correct,0.9232,0,127,7,1,Middle,1¢,18.136986301369863,18,Adults,153
Hard,1,correct,0.5766,0,128,7,1,Middle,1¢,18.136986301369863,18,Adults,153
Hard,1,correct,0.5714,0,129,7,1,Middle,1¢,18.136986301369863,18,Adults,153
Hard,1,correct,0.5227,0,130,7,1,Middle,1¢,18.136986301369863,18,Adults,153
Hard,0,correct,0.6175,0,131,7,1,Middle,1¢,18.136986301369863,18,Adults,153
Hard,0,correct,0.5394,0,132,7,1,Middle,1¢,18.136986301369863,18,Adults,153
Hard,1,correct,0.6716,0,133,7,1,Middle,1¢,18.136986301369863,18,Adults,153
Hard,0,correct,0.617,0,134,7,1,Middle,1¢,18.136986301369863,18,Adults,153
Hard,0,correct,1.1357,0,135,7,1,Middle,1¢,18.136986301369863,18,Adults,153
Hard,1,correct,0.5567,0,136,7,1,Middle,1¢,18.136986301369863,18,Adults,153
Hard,0,correct,0.604,0,137,7,1,Middle,1¢,18.136986301369863,18,Adults,153
Hard,1,correct,0.6711,0,138,7,1,Middle,1¢,18.136986301369863,18,Adults,153
Hard,0,correct,0.6877,0,139,7,1,Middle,1¢,18.136986301369863,18,Adults,153
Hard,1,correct,0.576,0,140,7,1,Middle,1¢,18.136986301369863,18,Adults,153
Hard,0,correct,0.5898,0,141,8,1,Middle,10¢,18.136986301369863,18,Adults,153
Hard,0,correct,0.5225,0,142,8,1,Middle,10¢,18.136986301369863,18,Adults,153
Hard,1,correct,0.6423,0,143,8,1,Middle,10¢,18.136986301369863,18,Adults,153
Hard,0,correct,0.5348,0,144,8,1,Middle,10¢,18.136986301369863,18,Adults,153
Hard,0,correct,0.635,0,145,8,1,Middle,10¢,18.136986301369863,18,Adults,153
Hard,0,correct,0.5669,0,146,8,1,Middle,10¢,18.136986301369863,18,Adults,153
Hard,1,correct,0.9056,0,147,8,1,Middle,10¢,18.136986301369863,18,Adults,153
Hard,1,too_slow,NA,1,148,8,NA,Middle,10¢,18.136986301369863,18,Adults,153
Hard,0,correct,0.6586,0,149,8,1,Middle,10¢,18.136986301369863,18,Adults,153
Hard,1,correct,0.574,0,150,8,1,Middle,10¢,18.136986301369863,18,Adults,153
Hard,0,correct,0.5597,0,151,8,1,Middle,10¢,18.136986301369863,18,Adults,153
Hard,1,correct,0.674,0,152,8,1,Middle,10¢,18.136986301369863,18,Adults,153
Hard,1,correct,0.6407,0,153,8,1,Middle,10¢,18.136986301369863,18,Adults,153
Hard,0,correct,0.8085,0,154,8,1,Middle,10¢,18.136986301369863,18,Adults,153
Hard,0,correct,0.5268,0,155,8,1,Middle,10¢,18.136986301369863,18,Adults,153
Hard,1,correct,0.6385,0,156,8,1,Middle,10¢,18.136986301369863,18,Adults,153
Hard,1,correct,0.5374,0,157,8,1,Middle,10¢,18.136986301369863,18,Adults,153
Hard,0,correct,1.0243,0,158,8,1,Middle,10¢,18.136986301369863,18,Adults,153
Hard,1,correct,0.9415,0,159,8,1,Middle,10¢,18.136986301369863,18,Adults,153
Hard,1,correct,0.5766,0,160,8,1,Middle,10¢,18.136986301369863,18,Adults,153
Easy,0,correct,0.4858,0,161,9,1,Late,10¢,18.136986301369863,18,Adults,153
Easy,0,correct,0.4498,0,162,9,1,Late,10¢,18.136986301369863,18,Adults,153
Easy,0,correct,0.4851,0,163,9,1,Late,10¢,18.136986301369863,18,Adults,153
Easy,0,correct,0.4676,0,164,9,1,Late,10¢,18.136986301369863,18,Adults,153
Easy,0,correct,0.4572,0,165,9,1,Late,10¢,18.136986301369863,18,Adults,153
Easy,0,correct,0.5283,0,166,9,1,Late,10¢,18.136986301369863,18,Adults,153
Easy,1,correct,0.6238,0,167,9,1,Late,10¢,18.136986301369863,18,Adults,153
Easy,0,correct,0.5839,0,168,9,1,Late,10¢,18.136986301369863,18,Adults,153
Easy,0,correct,0.821,0,169,9,1,Late,10¢,18.136986301369863,18,Adults,153
Easy,0,correct,0.6505,0,170,9,1,Late,10¢,18.136986301369863,18,Adults,153
Easy,0,correct,0.6179,0,171,9,1,Late,10¢,18.136986301369863,18,Adults,153
Easy,1,correct,0.5535,0,172,9,1,Late,10¢,18.136986301369863,18,Adults,153
Easy,0,correct,0.6013,0,173,9,1,Late,10¢,18.136986301369863,18,Adults,153
Easy,0,correct,0.5549,0,174,9,1,Late,10¢,18.136986301369863,18,Adults,153
Easy,0,correct,0.7071,0,175,9,1,Late,10¢,18.136986301369863,18,Adults,153
Easy,1,too_slow,NA,1,176,9,NA,Late,10¢,18.136986301369863,18,Adults,153
Easy,0,correct,0.6057,0,177,9,1,Late,10¢,18.136986301369863,18,Adults,153
Easy,0,correct,0.8901,0,178,9,1,Late,10¢,18.136986301369863,18,Adults,153
Easy,0,correct,0.6181,0,179,9,1,Late,10¢,18.136986301369863,18,Adults,153
Easy,1,correct,0.5857,0,180,9,1,Late,10¢,18.136986301369863,18,Adults,153
Easy,0,correct,0.9176,0,181,10,1,Late,1¢,18.136986301369863,18,Adults,153
Easy,0,correct,0.59,0,182,10,1,Late,1¢,18.136986301369863,18,Adults,153
Easy,0,correct,0.5688,0,183,10,1,Late,1¢,18.136986301369863,18,Adults,153
Easy,1,correct,0.6865,0,184,10,1,Late,1¢,18.136986301369863,18,Adults,153
Easy,0,correct,0.6241,0,185,10,1,Late,1¢,18.136986301369863,18,Adults,153
Easy,0,correct,0.5843,0,186,10,1,Late,1¢,18.136986301369863,18,Adults,153
Easy,0,correct,0.5869,0,187,10,1,Late,1¢,18.136986301369863,18,Adults,153
Easy,1,correct,0.8231,0,188,10,1,Late,1¢,18.136986301369863,18,Adults,153
Easy,0,correct,0.5906,0,189,10,1,Late,1¢,18.136986301369863,18,Adults,153
Easy,1,correct,0.5867,0,190,10,1,Late,1¢,18.136986301369863,18,Adults,153
Easy,1,correct,0.6049,0,191,10,1,Late,1¢,18.136986301369863,18,Adults,153
Easy,0,correct,0.4889,0,192,10,1,Late,1¢,18.136986301369863,18,Adults,153
Easy,0,correct,0.523,0,193,10,1,Late,1¢,18.136986301369863,18,Adults,153
Easy,0,correct,0.506,0,194,10,1,Late,1¢,18.136986301369863,18,Adults,153
Easy,0,correct,0.4557,0,195,10,1,Late,1¢,18.136986301369863,18,Adults,153
Easy,0,correct,0.4726,0,196,10,1,Late,1¢,18.136986301369863,18,Adults,153
Easy,0,correct,0.5256,0,197,10,1,Late,1¢,18.136986301369863,18,Adults,153
Easy,0,correct,0.4529,0,198,10,1,Late,1¢,18.136986301369863,18,Adults,153
Easy,0,correct,0.4708,0,199,10,1,Late,1¢,18.136986301369863,18,Adults,153
Easy,0,correct,0.5909,0,200,10,1,Late,1¢,18.136986301369863,18,Adults,153
Hard,0,correct,0.8631,0,201,11,1,Late,10¢,18.136986301369863,18,Adults,153
Hard,1,correct,0.6715,0,202,11,1,Late,10¢,18.136986301369863,18,Adults,153
Hard,0,correct,1.0396,0,203,11,1,Late,10¢,18.136986301369863,18,Adults,153
Hard,1,correct,0.5084,0,204,11,1,Late,10¢,18.136986301369863,18,Adults,153
Hard,0,correct,0.4563,0,205,11,1,Late,10¢,18.136986301369863,18,Adults,153
Hard,1,correct,0.6894,0,206,11,1,Late,10¢,18.136986301369863,18,Adults,153
Hard,0,correct,0.6068,0,207,11,1,Late,10¢,18.136986301369863,18,Adults,153
Hard,0,correct,0.8464,0,208,11,1,Late,10¢,18.136986301369863,18,Adults,153
Hard,0,correct,0.8351,0,209,11,1,Late,10¢,18.136986301369863,18,Adults,153
Hard,1,correct,0.8019,0,210,11,1,Late,10¢,18.136986301369863,18,Adults,153
Hard,1,correct,0.6043,0,211,11,1,Late,10¢,18.136986301369863,18,Adults,153
Hard,0,correct,0.8393,0,212,11,1,Late,10¢,18.136986301369863,18,Adults,153
Hard,0,correct,0.9041,0,213,11,1,Late,10¢,18.136986301369863,18,Adults,153
Hard,1,correct,0.6022,0,214,11,1,Late,10¢,18.136986301369863,18,Adults,153
Hard,0,correct,0.524,0,215,11,1,Late,10¢,18.136986301369863,18,Adults,153
Hard,1,correct,0.6905,0,216,11,1,Late,10¢,18.136986301369863,18,Adults,153
Hard,0,correct,0.6844,0,217,11,1,Late,10¢,18.136986301369863,18,Adults,153
Hard,1,correct,0.5564,0,218,11,1,Late,10¢,18.136986301369863,18,Adults,153
Hard,1,correct,0.584,0,219,11,1,Late,10¢,18.136986301369863,18,Adults,153
Hard,1,correct,0.4912,0,220,11,1,Late,10¢,18.136986301369863,18,Adults,153
Hard,0,correct,0.6497,0,221,12,1,Late,1¢,18.136986301369863,18,Adults,153
Hard,1,too_slow,NA,1,222,12,NA,Late,1¢,18.136986301369863,18,Adults,153
Hard,0,correct,0.8405,0,223,12,1,Late,1¢,18.136986301369863,18,Adults,153
Hard,0,correct,0.5851,0,224,12,1,Late,1¢,18.136986301369863,18,Adults,153
Hard,1,correct,0.7184,0,225,12,1,Late,1¢,18.136986301369863,18,Adults,153
Hard,1,correct,0.6046,0,226,12,1,Late,1¢,18.136986301369863,18,Adults,153
Hard,0,correct,0.5677,0,227,12,1,Late,1¢,18.136986301369863,18,Adults,153
Hard,0,correct,0.5887,0,228,12,1,Late,1¢,18.136986301369863,18,Adults,153
Hard,1,correct,0.5843,0,229,12,1,Late,1¢,18.136986301369863,18,Adults,153
Hard,1,correct,0.8699,0,230,12,1,Late,1¢,18.136986301369863,18,Adults,153
Hard,0,too_slow,NA,1,231,12,NA,Late,1¢,18.136986301369863,18,Adults,153
Hard,0,correct,0.909,0,232,12,1,Late,1¢,18.136986301369863,18,Adults,153
Hard,1,correct,0.9228,0,233,12,1,Late,1¢,18.136986301369863,18,Adults,153
Hard,1,correct,1.0774,0,234,12,1,Late,1¢,18.136986301369863,18,Adults,153
Hard,1,correct,0.6239,0,235,12,1,Late,1¢,18.136986301369863,18,Adults,153
Hard,1,correct,0.8901,0,236,12,1,Late,1¢,18.136986301369863,18,Adults,153
Hard,0,correct,0.6988,0,237,12,1,Late,1¢,18.136986301369863,18,Adults,153
Hard,0,correct,0.9047,0,238,12,1,Late,1¢,18.136986301369863,18,Adults,153
Hard,1,correct,0.6898,0,239,12,1,Late,1¢,18.136986301369863,18,Adults,153
Hard,0,correct,0.5916,0,240,12,1,Late,1¢,18.136986301369863,18,Adults,153
Easy,0,correct,1.3495,0,1,1,1,Early,10¢,14.046575342465754,14,Adolescents,154
Easy,0,correct,0.9339,0,2,1,1,Early,10¢,14.046575342465754,14,Adolescents,154
Easy,0,correct,1.1242,0,3,1,1,Early,10¢,14.046575342465754,14,Adolescents,154
Easy,0,correct,0.6399,0,4,1,1,Early,10¢,14.046575342465754,14,Adolescents,154
Easy,0,correct,0.7206,0,5,1,1,Early,10¢,14.046575342465754,14,Adolescents,154
Easy,0,correct,0.6347,0,6,1,1,Early,10¢,14.046575342465754,14,Adolescents,154
Easy,0,correct,0.8856,0,7,1,1,Early,10¢,14.046575342465754,14,Adolescents,154
Easy,1,correct,1.4744,0,8,1,1,Early,10¢,14.046575342465754,14,Adolescents,154
Easy,0,correct,1.4716,0,9,1,1,Early,10¢,14.046575342465754,14,Adolescents,154
Easy,0,correct,1.4036,0,10,1,1,Early,10¢,14.046575342465754,14,Adolescents,154
Easy,0,correct,1.0938,0,11,1,1,Early,10¢,14.046575342465754,14,Adolescents,154
Easy,0,correct,1.4383,0,12,1,1,Early,10¢,14.046575342465754,14,Adolescents,154
Easy,0,correct,1.1944,0,13,1,1,Early,10¢,14.046575342465754,14,Adolescents,154
Easy,0,too_slow,NA,1,14,1,NA,Early,10¢,14.046575342465754,14,Adolescents,154
Easy,0,correct,1.1789,0,15,1,1,Early,10¢,14.046575342465754,14,Adolescents,154
Easy,0,too_slow,NA,1,16,1,NA,Early,10¢,14.046575342465754,14,Adolescents,154
Easy,0,correct,1.2758,0,17,1,1,Early,10¢,14.046575342465754,14,Adolescents,154
Easy,1,correct,1.2174,0,18,1,1,Early,10¢,14.046575342465754,14,Adolescents,154
Easy,1,correct,1.0693,0,19,1,1,Early,10¢,14.046575342465754,14,Adolescents,154
Easy,1,correct,1.6599,0,20,1,1,Early,10¢,14.046575342465754,14,Adolescents,154
Easy,0,correct,1.1382,0,21,2,1,Early,1¢,14.046575342465754,14,Adolescents,154
Easy,1,correct,1.7985,0,22,2,1,Early,1¢,14.046575342465754,14,Adolescents,154
Easy,0,correct,0.9847,0,23,2,1,Early,1¢,14.046575342465754,14,Adolescents,154
Easy,1,correct,1.1513,0,24,2,1,Early,1¢,14.046575342465754,14,Adolescents,154
Easy,0,correct,0.7018,0,25,2,1,Early,1¢,14.046575342465754,14,Adolescents,154
Easy,0,correct,0.8552,0,26,2,1,Early,1¢,14.046575342465754,14,Adolescents,154
Easy,0,correct,0.7016,0,27,2,1,Early,1¢,14.046575342465754,14,Adolescents,154
Easy,0,correct,0.762,0,28,2,1,Early,1¢,14.046575342465754,14,Adolescents,154
Easy,0,correct,1.0668,0,29,2,1,Early,1¢,14.046575342465754,14,Adolescents,154
Easy,0,correct,0.7617,0,30,2,1,Early,1¢,14.046575342465754,14,Adolescents,154
Easy,0,correct,0.5359,0,31,2,1,Early,1¢,14.046575342465754,14,Adolescents,154
Easy,0,correct,0.7084,0,32,2,1,Early,1¢,14.046575342465754,14,Adolescents,154
Easy,1,correct,1.586,0,33,2,1,Early,1¢,14.046575342465754,14,Adolescents,154
Easy,0,correct,1.2377,0,34,2,1,Early,1¢,14.046575342465754,14,Adolescents,154
Easy,0,correct,1.5095,0,35,2,1,Early,1¢,14.046575342465754,14,Adolescents,154
Easy,0,correct,1.0953,0,36,2,1,Early,1¢,14.046575342465754,14,Adolescents,154
Easy,0,correct,0.9745,0,37,2,1,Early,1¢,14.046575342465754,14,Adolescents,154
Easy,1,correct,0.7594,0,38,2,1,Early,1¢,14.046575342465754,14,Adolescents,154
Easy,0,correct,0.6569,0,39,2,1,Early,1¢,14.046575342465754,14,Adolescents,154
Easy,0,correct,0.5446,0,40,2,1,Early,1¢,14.046575342465754,14,Adolescents,154
Hard,0,correct,0.9865,0,41,3,1,Early,10¢,14.046575342465754,14,Adolescents,154
Hard,0,correct,0.7969,0,42,3,1,Early,10¢,14.046575342465754,14,Adolescents,154
Hard,0,correct,1.0762,0,43,3,1,Early,10¢,14.046575342465754,14,Adolescents,154
Hard,0,correct,0.8493,0,44,3,1,Early,10¢,14.046575342465754,14,Adolescents,154
Hard,0,correct,0.5645,0,45,3,1,Early,10¢,14.046575342465754,14,Adolescents,154
Hard,1,correct,1.4658,0,46,3,1,Early,10¢,14.046575342465754,14,Adolescents,154
Hard,1,correct,0.948,0,47,3,1,Early,10¢,14.046575342465754,14,Adolescents,154
Hard,1,correct,1.2073,0,48,3,1,Early,10¢,14.046575342465754,14,Adolescents,154
Hard,0,correct,1.1969,0,49,3,1,Early,10¢,14.046575342465754,14,Adolescents,154
Hard,1,correct,1.0664,0,50,3,1,Early,10¢,14.046575342465754,14,Adolescents,154
Hard,1,correct,1.1887,0,51,3,1,Early,10¢,14.046575342465754,14,Adolescents,154
Hard,0,correct,1.0965,0,52,3,1,Early,10¢,14.046575342465754,14,Adolescents,154
Hard,0,correct,1.3768,0,53,3,1,Early,10¢,14.046575342465754,14,Adolescents,154
Hard,1,correct,1.5024,0,54,3,1,Early,10¢,14.046575342465754,14,Adolescents,154
Hard,1,correct,1.2827,0,55,3,1,Early,10¢,14.046575342465754,14,Adolescents,154
Hard,0,correct,1.018,0,56,3,1,Early,10¢,14.046575342465754,14,Adolescents,154
Hard,1,correct,0.9772,0,57,3,1,Early,10¢,14.046575342465754,14,Adolescents,154
Hard,0,correct,0.6743,0,58,3,1,Early,10¢,14.046575342465754,14,Adolescents,154
Hard,1,correct,1.2223,0,59,3,1,Early,10¢,14.046575342465754,14,Adolescents,154
Hard,1,correct,1.078,0,60,3,1,Early,10¢,14.046575342465754,14,Adolescents,154
Hard,0,correct,1.397,0,61,4,1,Early,1¢,14.046575342465754,14,Adolescents,154
Hard,1,correct,1.2025,0,62,4,1,Early,1¢,14.046575342465754,14,Adolescents,154
Hard,0,correct,0.8126,0,63,4,1,Early,1¢,14.046575342465754,14,Adolescents,154
Hard,0,correct,1.0072,0,64,4,1,Early,1¢,14.046575342465754,14,Adolescents,154
Hard,1,correct,0.8626,0,65,4,1,Early,1¢,14.046575342465754,14,Adolescents,154
Hard,0,correct,0.7622,0,66,4,1,Early,1¢,14.046575342465754,14,Adolescents,154
Hard,1,correct,0.7892,0,67,4,1,Early,1¢,14.046575342465754,14,Adolescents,154
Hard,1,correct,1.4324,0,68,4,1,Early,1¢,14.046575342465754,14,Adolescents,154
Hard,0,correct,0.6721,0,69,4,1,Early,1¢,14.046575342465754,14,Adolescents,154
Hard,1,correct,1.0638,0,70,4,1,Early,1¢,14.046575342465754,14,Adolescents,154
Hard,0,correct,0.739,0,71,4,1,Early,1¢,14.046575342465754,14,Adolescents,154
Hard,1,correct,0.9191,0,72,4,1,Early,1¢,14.046575342465754,14,Adolescents,154
Hard,1,correct,0.8851,0,73,4,1,Early,1¢,14.046575342465754,14,Adolescents,154
Hard,1,correct,0.8617,0,74,4,1,Early,1¢,14.046575342465754,14,Adolescents,154
Hard,0,correct,0.703,0,75,4,1,Early,1¢,14.046575342465754,14,Adolescents,154
Hard,0,correct,0.7016,0,76,4,1,Early,1¢,14.046575342465754,14,Adolescents,154
Hard,1,correct,1.428,0,77,4,1,Early,1¢,14.046575342465754,14,Adolescents,154
Hard,0,correct,1.4315,0,78,4,1,Early,1¢,14.046575342465754,14,Adolescents,154
Hard,1,correct,1.0181,0,79,4,1,Early,1¢,14.046575342465754,14,Adolescents,154
Hard,0,correct,1.715,0,80,4,1,Early,1¢,14.046575342465754,14,Adolescents,154
Easy,0,correct,0.9348,0,81,5,1,Middle,1¢,14.046575342465754,14,Adolescents,154
Easy,0,correct,1.8863,0,82,5,1,Middle,1¢,14.046575342465754,14,Adolescents,154
Easy,1,correct,1.2018,0,83,5,1,Middle,1¢,14.046575342465754,14,Adolescents,154
Easy,0,correct,1.0934,0,84,5,1,Middle,1¢,14.046575342465754,14,Adolescents,154
Easy,0,correct,1.1066,0,85,5,1,Middle,1¢,14.046575342465754,14,Adolescents,154
Easy,0,correct,1.2147,0,86,5,1,Middle,1¢,14.046575342465754,14,Adolescents,154
Easy,0,correct,1.045,0,87,5,1,Middle,1¢,14.046575342465754,14,Adolescents,154
Easy,1,correct,1.0861,0,88,5,1,Middle,1¢,14.046575342465754,14,Adolescents,154
Easy,0,correct,0.6971,0,89,5,1,Middle,1¢,14.046575342465754,14,Adolescents,154
Easy,0,correct,0.6425,0,90,5,1,Middle,1¢,14.046575342465754,14,Adolescents,154
Easy,0,correct,0.6938,0,91,5,1,Middle,1¢,14.046575342465754,14,Adolescents,154
Easy,0,correct,0.7658,0,92,5,1,Middle,1¢,14.046575342465754,14,Adolescents,154
Easy,0,correct,0.6514,0,93,5,1,Middle,1¢,14.046575342465754,14,Adolescents,154
Easy,1,correct,0.9778,0,94,5,1,Middle,1¢,14.046575342465754,14,Adolescents,154
Easy,0,correct,0.8536,0,95,5,1,Middle,1¢,14.046575342465754,14,Adolescents,154
Easy,0,correct,0.9731,0,96,5,1,Middle,1¢,14.046575342465754,14,Adolescents,154
Easy,0,correct,1.268,0,97,5,1,Middle,1¢,14.046575342465754,14,Adolescents,154
Easy,0,correct,1.3396,0,98,5,1,Middle,1¢,14.046575342465754,14,Adolescents,154
Easy,1,correct,0.9395,0,99,5,1,Middle,1¢,14.046575342465754,14,Adolescents,154
Easy,0,correct,0.9691,0,100,5,1,Middle,1¢,14.046575342465754,14,Adolescents,154
Easy,0,correct,0.8589,0,101,6,1,Middle,10¢,14.046575342465754,14,Adolescents,154
Easy,0,correct,1.2171,0,102,6,1,Middle,10¢,14.046575342465754,14,Adolescents,154
Easy,0,correct,0.8686,0,103,6,1,Middle,10¢,14.046575342465754,14,Adolescents,154
Easy,0,correct,1.306,0,104,6,1,Middle,10¢,14.046575342465754,14,Adolescents,154
Easy,1,correct,1.561,0,105,6,1,Middle,10¢,14.046575342465754,14,Adolescents,154
Easy,0,correct,0.9283,0,106,6,1,Middle,10¢,14.046575342465754,14,Adolescents,154
Easy,0,correct,1.1349,0,107,6,1,Middle,10¢,14.046575342465754,14,Adolescents,154
Easy,0,correct,0.8804,0,108,6,1,Middle,10¢,14.046575342465754,14,Adolescents,154
Easy,0,correct,1.0568,0,109,6,1,Middle,10¢,14.046575342465754,14,Adolescents,154
Easy,1,correct,1.2699,0,110,6,1,Middle,10¢,14.046575342465754,14,Adolescents,154
Easy,0,correct,1.1512,0,111,6,1,Middle,10¢,14.046575342465754,14,Adolescents,154
Easy,0,correct,0.8047,0,112,6,1,Middle,10¢,14.046575342465754,14,Adolescents,154
Easy,0,correct,0.9935,0,113,6,1,Middle,10¢,14.046575342465754,14,Adolescents,154
Easy,0,correct,0.9752,0,114,6,1,Middle,10¢,14.046575342465754,14,Adolescents,154
Easy,0,correct,1.1289,0,115,6,1,Middle,10¢,14.046575342465754,14,Adolescents,154
Easy,1,correct,1.2767,0,116,6,1,Middle,10¢,14.046575342465754,14,Adolescents,154
Easy,1,correct,1.0898,0,117,6,1,Middle,10¢,14.046575342465754,14,Adolescents,154
Easy,0,correct,0.9758,0,118,6,1,Middle,10¢,14.046575342465754,14,Adolescents,154
Easy,0,correct,0.6466,0,119,6,1,Middle,10¢,14.046575342465754,14,Adolescents,154
Easy,0,correct,1.0538,0,120,6,1,Middle,10¢,14.046575342465754,14,Adolescents,154
Hard,0,too_slow,NA,1,121,7,NA,Middle,1¢,14.046575342465754,14,Adolescents,154
Hard,1,correct,1.0463,0,122,7,1,Middle,1¢,14.046575342465754,14,Adolescents,154
Hard,1,correct,1.1151,0,123,7,1,Middle,1¢,14.046575342465754,14,Adolescents,154
Hard,1,correct,1.0238,0,124,7,1,Middle,1¢,14.046575342465754,14,Adolescents,154
Hard,1,correct,1.0098,0,125,7,1,Middle,1¢,14.046575342465754,14,Adolescents,154
Hard,0,correct,1.1907,0,126,7,1,Middle,1¢,14.046575342465754,14,Adolescents,154
Hard,0,correct,0.9985,0,127,7,1,Middle,1¢,14.046575342465754,14,Adolescents,154
Hard,0,correct,0.9749,0,128,7,1,Middle,1¢,14.046575342465754,14,Adolescents,154
Hard,1,correct,1.3802,0,129,7,1,Middle,1¢,14.046575342465754,14,Adolescents,154
Hard,1,correct,0.7699,0,130,7,1,Middle,1¢,14.046575342465754,14,Adolescents,154
Hard,1,correct,1.0066,0,131,7,1,Middle,1¢,14.046575342465754,14,Adolescents,154
Hard,0,correct,1.0745,0,132,7,1,Middle,1¢,14.046575342465754,14,Adolescents,154
Hard,1,correct,1.1292,0,133,7,1,Middle,1¢,14.046575342465754,14,Adolescents,154
Hard,0,correct,0.8851,0,134,7,1,Middle,1¢,14.046575342465754,14,Adolescents,154
Hard,0,correct,0.9971,0,135,7,1,Middle,1¢,14.046575342465754,14,Adolescents,154
Hard,1,correct,0.8823,0,136,7,1,Middle,1¢,14.046575342465754,14,Adolescents,154
Hard,0,correct,1.0328,0,137,7,1,Middle,1¢,14.046575342465754,14,Adolescents,154
Hard,1,correct,1.0806,0,138,7,1,Middle,1¢,14.046575342465754,14,Adolescents,154
Hard,0,correct,1.4407,0,139,7,1,Middle,1¢,14.046575342465754,14,Adolescents,154
Hard,0,correct,0.8256,0,140,7,1,Middle,1¢,14.046575342465754,14,Adolescents,154
Hard,0,correct,0.8173,0,141,8,1,Middle,10¢,14.046575342465754,14,Adolescents,154
Hard,1,correct,0.9298,0,142,8,1,Middle,10¢,14.046575342465754,14,Adolescents,154
Hard,0,correct,1.3251,0,143,8,1,Middle,10¢,14.046575342465754,14,Adolescents,154
Hard,1,correct,1.054,0,144,8,1,Middle,10¢,14.046575342465754,14,Adolescents,154
Hard,0,correct,0.8064,0,145,8,1,Middle,10¢,14.046575342465754,14,Adolescents,154
Hard,0,correct,1.162,0,146,8,1,Middle,10¢,14.046575342465754,14,Adolescents,154
Hard,1,correct,1.2601,0,147,8,1,Middle,10¢,14.046575342465754,14,Adolescents,154
Hard,1,correct,0.9935,0,148,8,1,Middle,10¢,14.046575342465754,14,Adolescents,154
Hard,1,correct,1.5007,0,149,8,1,Middle,10¢,14.046575342465754,14,Adolescents,154
Hard,1,correct,0.717,0,150,8,1,Middle,10¢,14.046575342465754,14,Adolescents,154
Hard,0,correct,1.6022,0,151,8,1,Middle,10¢,14.046575342465754,14,Adolescents,154
Hard,1,too_slow,NA,1,152,8,NA,Middle,10¢,14.046575342465754,14,Adolescents,154
Hard,0,too_slow,NA,1,153,8,NA,Middle,10¢,14.046575342465754,14,Adolescents,154
Hard,0,correct,1.2774,0,154,8,1,Middle,10¢,14.046575342465754,14,Adolescents,154
Hard,1,correct,0.8954,0,155,8,1,Middle,10¢,14.046575342465754,14,Adolescents,154
Hard,0,correct,0.8356,0,156,8,1,Middle,10¢,14.046575342465754,14,Adolescents,154
Hard,1,correct,1.3409,0,157,8,1,Middle,10¢,14.046575342465754,14,Adolescents,154
Hard,0,correct,1.4322,0,158,8,1,Middle,10¢,14.046575342465754,14,Adolescents,154
Hard,1,correct,0.8098,0,159,8,1,Middle,10¢,14.046575342465754,14,Adolescents,154
Hard,0,correct,1.5416,0,160,8,1,Middle,10¢,14.046575342465754,14,Adolescents,154
Easy,0,correct,1.0874,0,161,9,1,Late,10¢,14.046575342465754,14,Adolescents,154
Easy,0,correct,1.0994,0,162,9,1,Late,10¢,14.046575342465754,14,Adolescents,154
Easy,0,correct,0.7966,0,163,9,1,Late,10¢,14.046575342465754,14,Adolescents,154
Easy,0,correct,0.577,0,164,9,1,Late,10¢,14.046575342465754,14,Adolescents,154
Easy,1,correct,0.9521,0,165,9,1,Late,10¢,14.046575342465754,14,Adolescents,154
Easy,0,correct,1.0839,0,166,9,1,Late,10¢,14.046575342465754,14,Adolescents,154
Easy,1,correct,0.9896,0,167,9,1,Late,10¢,14.046575342465754,14,Adolescents,154
Easy,0,correct,1.3499,0,168,9,1,Late,10¢,14.046575342465754,14,Adolescents,154
Easy,0,correct,1.0205,0,169,9,1,Late,10¢,14.046575342465754,14,Adolescents,154
Easy,0,correct,1.4062,0,170,9,1,Late,10¢,14.046575342465754,14,Adolescents,154
Easy,0,correct,0.9702,0,171,9,1,Late,10¢,14.046575342465754,14,Adolescents,154
Easy,0,correct,0.9897,0,172,9,1,Late,10¢,14.046575342465754,14,Adolescents,154
Easy,0,correct,0.8063,0,173,9,1,Late,10¢,14.046575342465754,14,Adolescents,154
Easy,1,correct,1.1343,0,174,9,1,Late,10¢,14.046575342465754,14,Adolescents,154
Easy,0,correct,1.0354,0,175,9,1,Late,10¢,14.046575342465754,14,Adolescents,154
Easy,0,correct,1.402,0,176,9,1,Late,10¢,14.046575342465754,14,Adolescents,154
Easy,0,correct,0.9141,0,177,9,1,Late,10¢,14.046575342465754,14,Adolescents,154
Easy,0,correct,1.0338,0,178,9,1,Late,10¢,14.046575342465754,14,Adolescents,154
Easy,1,correct,0.9848,0,179,9,1,Late,10¢,14.046575342465754,14,Adolescents,154
Easy,0,correct,0.8683,0,180,9,1,Late,10¢,14.046575342465754,14,Adolescents,154
Easy,0,correct,0.9233,0,181,10,1,Late,1¢,14.046575342465754,14,Adolescents,154
Easy,1,correct,0.8916,0,182,10,1,Late,1¢,14.046575342465754,14,Adolescents,154
Easy,0,correct,1.4395,0,183,10,1,Late,1¢,14.046575342465754,14,Adolescents,154
Easy,0,correct,0.8979,0,184,10,1,Late,1¢,14.046575342465754,14,Adolescents,154
Easy,0,correct,1.067,0,185,10,1,Late,1¢,14.046575342465754,14,Adolescents,154
Easy,0,correct,0.8593,0,186,10,1,Late,1¢,14.046575342465754,14,Adolescents,154
Easy,0,correct,1.1823,0,187,10,1,Late,1¢,14.046575342465754,14,Adolescents,154
Easy,0,correct,0.7643,0,188,10,1,Late,1¢,14.046575342465754,14,Adolescents,154
Easy,0,correct,1.5169,0,189,10,1,Late,1¢,14.046575342465754,14,Adolescents,154
Easy,0,correct,0.8366,0,190,10,1,Late,1¢,14.046575342465754,14,Adolescents,154
Easy,0,correct,1.0876,0,191,10,1,Late,1¢,14.046575342465754,14,Adolescents,154
Easy,0,correct,1.3578,0,192,10,1,Late,1¢,14.046575342465754,14,Adolescents,154
Easy,0,incorrect,0.7328,0,193,10,0,Late,1¢,14.046575342465754,14,Adolescents,154
Easy,0,correct,0.9536,0,194,10,1,Late,1¢,14.046575342465754,14,Adolescents,154
Easy,0,correct,1.2811,0,195,10,1,Late,1¢,14.046575342465754,14,Adolescents,154
Easy,1,correct,1.3934,0,196,10,1,Late,1¢,14.046575342465754,14,Adolescents,154
Easy,0,correct,0.9102,0,197,10,1,Late,1¢,14.046575342465754,14,Adolescents,154
Easy,1,correct,1.1561,0,198,10,1,Late,1¢,14.046575342465754,14,Adolescents,154
Easy,1,correct,1.2243,0,199,10,1,Late,1¢,14.046575342465754,14,Adolescents,154
Easy,0,correct,1.0075,0,200,10,1,Late,1¢,14.046575342465754,14,Adolescents,154
Hard,0,correct,1.3279,0,201,11,1,Late,10¢,14.046575342465754,14,Adolescents,154
Hard,0,too_slow,NA,1,202,11,NA,Late,10¢,14.046575342465754,14,Adolescents,154
Hard,1,correct,0.9398,0,203,11,1,Late,10¢,14.046575342465754,14,Adolescents,154
Hard,1,correct,0.8018,0,204,11,1,Late,10¢,14.046575342465754,14,Adolescents,154
Hard,0,correct,0.8728,0,205,11,1,Late,10¢,14.046575342465754,14,Adolescents,154
Hard,1,correct,0.7409,0,206,11,1,Late,10¢,14.046575342465754,14,Adolescents,154
Hard,0,correct,0.771,0,207,11,1,Late,10¢,14.046575342465754,14,Adolescents,154
Hard,0,correct,0.8121,0,208,11,1,Late,10¢,14.046575342465754,14,Adolescents,154
Hard,1,correct,1.3361,0,209,11,1,Late,10¢,14.046575342465754,14,Adolescents,154
Hard,1,correct,1.0461,0,210,11,1,Late,10¢,14.046575342465754,14,Adolescents,154
Hard,0,correct,0.8573,0,211,11,1,Late,10¢,14.046575342465754,14,Adolescents,154
Hard,0,correct,1.0303,0,212,11,1,Late,10¢,14.046575342465754,14,Adolescents,154
Hard,1,correct,1.1178,0,213,11,1,Late,10¢,14.046575342465754,14,Adolescents,154
Hard,0,correct,1.0668,0,214,11,1,Late,10¢,14.046575342465754,14,Adolescents,154
Hard,1,correct,1.1606,0,215,11,1,Late,10¢,14.046575342465754,14,Adolescents,154
Hard,1,correct,0.7877,0,216,11,1,Late,10¢,14.046575342465754,14,Adolescents,154
Hard,1,correct,0.7979,0,217,11,1,Late,10¢,14.046575342465754,14,Adolescents,154
Hard,0,correct,0.907,0,218,11,1,Late,10¢,14.046575342465754,14,Adolescents,154
Hard,0,correct,1.0259,0,219,11,1,Late,10¢,14.046575342465754,14,Adolescents,154
Hard,1,correct,0.91,0,220,11,1,Late,10¢,14.046575342465754,14,Adolescents,154
Hard,0,correct,0.9843,0,221,12,1,Late,1¢,14.046575342465754,14,Adolescents,154
Hard,0,correct,0.628,0,222,12,1,Late,1¢,14.046575342465754,14,Adolescents,154
Hard,0,correct,0.8794,0,223,12,1,Late,1¢,14.046575342465754,14,Adolescents,154
Hard,1,correct,1.0726,0,224,12,1,Late,1¢,14.046575342465754,14,Adolescents,154
Hard,1,correct,1.0077,0,225,12,1,Late,1¢,14.046575342465754,14,Adolescents,154
Hard,1,correct,1.1799,0,226,12,1,Late,1¢,14.046575342465754,14,Adolescents,154
Hard,1,too_slow,NA,1,227,12,NA,Late,1¢,14.046575342465754,14,Adolescents,154
Hard,0,correct,1.1152,0,228,12,1,Late,1¢,14.046575342465754,14,Adolescents,154
Hard,0,correct,0.7667,0,229,12,1,Late,1¢,14.046575342465754,14,Adolescents,154
Hard,1,correct,0.8381,0,230,12,1,Late,1¢,14.046575342465754,14,Adolescents,154
Hard,0,correct,0.7017,0,231,12,1,Late,1¢,14.046575342465754,14,Adolescents,154
Hard,0,correct,0.5278,0,232,12,1,Late,1¢,14.046575342465754,14,Adolescents,154
Hard,1,correct,0.7674,0,233,12,1,Late,1¢,14.046575342465754,14,Adolescents,154
Hard,1,correct,1.0285,0,234,12,1,Late,1¢,14.046575342465754,14,Adolescents,154
Hard,1,correct,1.2966,0,235,12,1,Late,1¢,14.046575342465754,14,Adolescents,154
Hard,0,correct,1.0444,0,236,12,1,Late,1¢,14.046575342465754,14,Adolescents,154
Hard,0,correct,1.0608,0,237,12,1,Late,1¢,14.046575342465754,14,Adolescents,154
Hard,1,correct,1.2295,0,238,12,1,Late,1¢,14.046575342465754,14,Adolescents,154
Hard,0,correct,1.1757,0,239,12,1,Late,1¢,14.046575342465754,14,Adolescents,154
Hard,1,correct,0.904,0,240,12,1,Late,1¢,14.046575342465754,14,Adolescents,154
Easy,0,correct,1.2242,0,1,1,1,Early,10¢,13.112328767123287,13,Adolescents,155
Easy,0,correct,0.6992,0,2,1,1,Early,10¢,13.112328767123287,13,Adolescents,155
Easy,0,correct,0.7231,0,3,1,1,Early,10¢,13.112328767123287,13,Adolescents,155
Easy,0,correct,0.7698,0,4,1,1,Early,10¢,13.112328767123287,13,Adolescents,155
Easy,0,correct,0.8715,0,5,1,1,Early,10¢,13.112328767123287,13,Adolescents,155
Easy,0,correct,0.5707,0,6,1,1,Early,10¢,13.112328767123287,13,Adolescents,155
Easy,0,correct,0.6656,0,7,1,1,Early,10¢,13.112328767123287,13,Adolescents,155
Easy,0,correct,0.4552,0,8,1,1,Early,10¢,13.112328767123287,13,Adolescents,155
Easy,0,correct,0.6509,0,9,1,1,Early,10¢,13.112328767123287,13,Adolescents,155
Easy,0,correct,0.5925,0,10,1,1,Early,10¢,13.112328767123287,13,Adolescents,155
Easy,1,correct,0.803,0,11,1,1,Early,10¢,13.112328767123287,13,Adolescents,155
Easy,0,correct,0.6878,0,12,1,1,Early,10¢,13.112328767123287,13,Adolescents,155
Easy,0,correct,0.6496,0,13,1,1,Early,10¢,13.112328767123287,13,Adolescents,155
Easy,0,correct,0.7352,0,14,1,1,Early,10¢,13.112328767123287,13,Adolescents,155
Easy,0,correct,0.8335,0,15,1,1,Early,10¢,13.112328767123287,13,Adolescents,155
Easy,1,correct,0.7601,0,16,1,1,Early,10¢,13.112328767123287,13,Adolescents,155
Easy,1,correct,0.9052,0,17,1,1,Early,10¢,13.112328767123287,13,Adolescents,155
Easy,0,correct,0.9037,0,18,1,1,Early,10¢,13.112328767123287,13,Adolescents,155
Easy,1,correct,0.8941,0,19,1,1,Early,10¢,13.112328767123287,13,Adolescents,155
Easy,0,correct,0.609,0,20,1,1,Early,10¢,13.112328767123287,13,Adolescents,155
Easy,0,correct,1.3413,0,21,2,1,Early,1¢,13.112328767123287,13,Adolescents,155
Easy,0,correct,0.4896,0,22,2,1,Early,1¢,13.112328767123287,13,Adolescents,155
Easy,0,correct,0.8054,0,23,2,1,Early,1¢,13.112328767123287,13,Adolescents,155
Easy,0,correct,0.7327,0,24,2,1,Early,1¢,13.112328767123287,13,Adolescents,155
Easy,0,correct,0.6349,0,25,2,1,Early,1¢,13.112328767123287,13,Adolescents,155
Easy,0,correct,0.5919,0,26,2,1,Early,1¢,13.112328767123287,13,Adolescents,155
Easy,1,correct,0.8935,0,27,2,1,Early,1¢,13.112328767123287,13,Adolescents,155
Easy,0,incorrect,0.7158,0,28,2,0,Early,1¢,13.112328767123287,13,Adolescents,155
Easy,0,correct,1.2872,0,29,2,1,Early,1¢,13.112328767123287,13,Adolescents,155
Easy,0,correct,0.8406,0,30,2,1,Early,1¢,13.112328767123287,13,Adolescents,155
Easy,1,correct,0.8397,0,31,2,1,Early,1¢,13.112328767123287,13,Adolescents,155
Easy,1,correct,0.888,0,32,2,1,Early,1¢,13.112328767123287,13,Adolescents,155
Easy,0,correct,0.7005,0,33,2,1,Early,1¢,13.112328767123287,13,Adolescents,155
Easy,0,correct,0.8377,0,34,2,1,Early,1¢,13.112328767123287,13,Adolescents,155
Easy,0,correct,0.7406,0,35,2,1,Early,1¢,13.112328767123287,13,Adolescents,155
Easy,0,correct,0.7062,0,36,2,1,Early,1¢,13.112328767123287,13,Adolescents,155
Easy,1,correct,0.7523,0,37,2,1,Early,1¢,13.112328767123287,13,Adolescents,155
Easy,0,correct,0.6654,0,38,2,1,Early,1¢,13.112328767123287,13,Adolescents,155
Easy,0,correct,0.8043,0,39,2,1,Early,1¢,13.112328767123287,13,Adolescents,155
Easy,0,correct,0.6576,0,40,2,1,Early,1¢,13.112328767123287,13,Adolescents,155
Hard,0,correct,0.9916,0,41,3,1,Early,10¢,13.112328767123287,13,Adolescents,155
Hard,0,correct,0.6655,0,42,3,1,Early,10¢,13.112328767123287,13,Adolescents,155
Hard,0,correct,0.721,0,43,3,1,Early,10¢,13.112328767123287,13,Adolescents,155
Hard,0,correct,0.5947,0,44,3,1,Early,10¢,13.112328767123287,13,Adolescents,155
Hard,0,correct,0.624,0,45,3,1,Early,10¢,13.112328767123287,13,Adolescents,155
Hard,0,correct,1.1889,0,46,3,1,Early,10¢,13.112328767123287,13,Adolescents,155
Hard,1,correct,0.9236,0,47,3,1,Early,10¢,13.112328767123287,13,Adolescents,155
Hard,1,correct,0.5577,0,48,3,1,Early,10¢,13.112328767123287,13,Adolescents,155
Hard,1,correct,0.9603,0,49,3,1,Early,10¢,13.112328767123287,13,Adolescents,155
Hard,1,correct,0.7061,0,50,3,1,Early,10¢,13.112328767123287,13,Adolescents,155
Hard,0,correct,0.6574,0,51,3,1,Early,10¢,13.112328767123287,13,Adolescents,155
Hard,1,correct,1.1062,0,52,3,1,Early,10¢,13.112328767123287,13,Adolescents,155
Hard,1,correct,0.7577,0,53,3,1,Early,10¢,13.112328767123287,13,Adolescents,155
Hard,0,correct,1.1587,0,54,3,1,Early,10¢,13.112328767123287,13,Adolescents,155
Hard,1,correct,0.8245,0,55,3,1,Early,10¢,13.112328767123287,13,Adolescents,155
Hard,1,correct,0.6396,0,56,3,1,Early,10¢,13.112328767123287,13,Adolescents,155
Hard,1,correct,1.1236,0,57,3,1,Early,10¢,13.112328767123287,13,Adolescents,155
Hard,0,correct,0.7391,0,58,3,1,Early,10¢,13.112328767123287,13,Adolescents,155
Hard,0,correct,0.9239,0,59,3,1,Early,10¢,13.112328767123287,13,Adolescents,155
Hard,1,correct,0.8088,0,60,3,1,Early,10¢,13.112328767123287,13,Adolescents,155
Hard,0,correct,1.1336,0,61,4,1,Early,1¢,13.112328767123287,13,Adolescents,155
Hard,0,too_slow,NA,1,62,4,NA,Early,1¢,13.112328767123287,13,Adolescents,155
Hard,1,correct,0.9375,0,63,4,1,Early,1¢,13.112328767123287,13,Adolescents,155
Hard,0,incorrect,0.7918,0,64,4,0,Early,1¢,13.112328767123287,13,Adolescents,155
Hard,0,correct,1.419,0,65,4,1,Early,1¢,13.112328767123287,13,Adolescents,155
Hard,0,correct,1.2149,0,66,4,1,Early,1¢,13.112328767123287,13,Adolescents,155
Hard,1,correct,0.7936,0,67,4,1,Early,1¢,13.112328767123287,13,Adolescents,155
Hard,1,correct,0.8571,0,68,4,1,Early,1¢,13.112328767123287,13,Adolescents,155
Hard,0,correct,0.8915,0,69,4,1,Early,1¢,13.112328767123287,13,Adolescents,155
Hard,0,correct,0.7067,0,70,4,1,Early,1¢,13.112328767123287,13,Adolescents,155
Hard,0,correct,0.8477,0,71,4,1,Early,1¢,13.112328767123287,13,Adolescents,155
Hard,1,correct,0.8562,0,72,4,1,Early,1¢,13.112328767123287,13,Adolescents,155
Hard,0,correct,0.8733,0,73,4,1,Early,1¢,13.112328767123287,13,Adolescents,155
Hard,1,correct,0.7269,0,74,4,1,Early,1¢,13.112328767123287,13,Adolescents,155
Hard,0,correct,0.8053,0,75,4,1,Early,1¢,13.112328767123287,13,Adolescents,155
Hard,1,correct,0.6574,0,76,4,1,Early,1¢,13.112328767123287,13,Adolescents,155
Hard,1,correct,0.6753,0,77,4,1,Early,1¢,13.112328767123287,13,Adolescents,155
Hard,1,correct,0.6567,0,78,4,1,Early,1¢,13.112328767123287,13,Adolescents,155
Hard,1,correct,0.8871,0,79,4,1,Early,1¢,13.112328767123287,13,Adolescents,155
Hard,1,correct,0.7099,0,80,4,1,Early,1¢,13.112328767123287,13,Adolescents,155
Easy,0,correct,0.8581,0,81,5,1,Middle,1¢,13.112328767123287,13,Adolescents,155
Easy,0,correct,0.6555,0,82,5,1,Middle,1¢,13.112328767123287,13,Adolescents,155
Easy,0,correct,0.6058,0,83,5,1,Middle,1¢,13.112328767123287,13,Adolescents,155
Easy,0,correct,0.6062,0,84,5,1,Middle,1¢,13.112328767123287,13,Adolescents,155
Easy,0,correct,0.5764,0,85,5,1,Middle,1¢,13.112328767123287,13,Adolescents,155
Easy,0,correct,0.6715,0,86,5,1,Middle,1¢,13.112328767123287,13,Adolescents,155
Easy,0,correct,0.9501,0,87,5,1,Middle,1¢,13.112328767123287,13,Adolescents,155
Easy,0,correct,0.8389,0,88,5,1,Middle,1¢,13.112328767123287,13,Adolescents,155
Easy,0,correct,1.0069,0,89,5,1,Middle,1¢,13.112328767123287,13,Adolescents,155
Easy,1,correct,1.0395,0,90,5,1,Middle,1¢,13.112328767123287,13,Adolescents,155
Easy,0,correct,0.732,0,91,5,1,Middle,1¢,13.112328767123287,13,Adolescents,155
Easy,0,correct,0.6822,0,92,5,1,Middle,1¢,13.112328767123287,13,Adolescents,155
Easy,0,correct,0.8921,0,93,5,1,Middle,1¢,13.112328767123287,13,Adolescents,155
Easy,0,incorrect,0.9136,0,94,5,0,Middle,1¢,13.112328767123287,13,Adolescents,155
Easy,1,correct,1.3557,0,95,5,1,Middle,1¢,13.112328767123287,13,Adolescents,155
Easy,1,correct,0.7909,0,96,5,1,Middle,1¢,13.112328767123287,13,Adolescents,155
Easy,0,correct,0.7792,0,97,5,1,Middle,1¢,13.112328767123287,13,Adolescents,155
Easy,0,correct,1.3671,0,98,5,1,Middle,1¢,13.112328767123287,13,Adolescents,155
Easy,1,correct,0.6057,0,99,5,1,Middle,1¢,13.112328767123287,13,Adolescents,155
Easy,0,correct,0.6491,0,100,5,1,Middle,1¢,13.112328767123287,13,Adolescents,155
Easy,0,correct,0.8772,0,101,6,1,Middle,10¢,13.112328767123287,13,Adolescents,155
Easy,0,correct,0.5584,0,102,6,1,Middle,10¢,13.112328767123287,13,Adolescents,155
Easy,1,correct,0.8245,0,103,6,1,Middle,10¢,13.112328767123287,13,Adolescents,155
Easy,1,correct,0.6539,0,104,6,1,Middle,10¢,13.112328767123287,13,Adolescents,155
Easy,0,correct,0.6555,0,105,6,1,Middle,10¢,13.112328767123287,13,Adolescents,155
Easy,0,correct,0.6928,0,106,6,1,Middle,10¢,13.112328767123287,13,Adolescents,155
Easy,1,correct,0.6695,0,107,6,1,Middle,10¢,13.112328767123287,13,Adolescents,155
Easy,1,correct,0.6737,0,108,6,1,Middle,10¢,13.112328767123287,13,Adolescents,155
Easy,0,correct,0.7402,0,109,6,1,Middle,10¢,13.112328767123287,13,Adolescents,155
Easy,0,correct,0.8224,0,110,6,1,Middle,10¢,13.112328767123287,13,Adolescents,155
Easy,0,correct,1.0403,0,111,6,1,Middle,10¢,13.112328767123287,13,Adolescents,155
Easy,0,correct,1.1573,0,112,6,1,Middle,10¢,13.112328767123287,13,Adolescents,155
Easy,0,correct,0.7898,0,113,6,1,Middle,10¢,13.112328767123287,13,Adolescents,155
Easy,0,correct,0.6477,0,114,6,1,Middle,10¢,13.112328767123287,13,Adolescents,155
Easy,0,correct,0.7735,0,115,6,1,Middle,10¢,13.112328767123287,13,Adolescents,155
Easy,0,correct,0.6404,0,116,6,1,Middle,10¢,13.112328767123287,13,Adolescents,155
Easy,0,correct,0.6185,0,117,6,1,Middle,10¢,13.112328767123287,13,Adolescents,155
Easy,0,correct,0.898,0,118,6,1,Middle,10¢,13.112328767123287,13,Adolescents,155
Easy,0,incorrect,0.5909,0,119,6,0,Middle,10¢,13.112328767123287,13,Adolescents,155
Easy,0,correct,1.1248,0,120,6,1,Middle,10¢,13.112328767123287,13,Adolescents,155
Hard,0,too_slow,NA,1,121,7,NA,Middle,1¢,13.112328767123287,13,Adolescents,155
Hard,0,correct,0.675,0,122,7,1,Middle,1¢,13.112328767123287,13,Adolescents,155
Hard,0,correct,1.4494,0,123,7,1,Middle,1¢,13.112328767123287,13,Adolescents,155
Hard,0,correct,0.775,0,124,7,1,Middle,1¢,13.112328767123287,13,Adolescents,155
Hard,1,correct,0.924,0,125,7,1,Middle,1¢,13.112328767123287,13,Adolescents,155
Hard,1,correct,0.8226,0,126,7,1,Middle,1¢,13.112328767123287,13,Adolescents,155
Hard,1,correct,1.074,0,127,7,1,Middle,1¢,13.112328767123287,13,Adolescents,155
Hard,0,correct,0.9245,0,128,7,1,Middle,1¢,13.112328767123287,13,Adolescents,155
Hard,1,correct,0.9221,0,129,7,1,Middle,1¢,13.112328767123287,13,Adolescents,155
Hard,0,correct,0.9254,0,130,7,1,Middle,1¢,13.112328767123287,13,Adolescents,155
Hard,1,correct,0.8409,0,131,7,1,Middle,1¢,13.112328767123287,13,Adolescents,155
Hard,1,correct,0.7088,0,132,7,1,Middle,1¢,13.112328767123287,13,Adolescents,155
Hard,0,correct,0.7401,0,133,7,1,Middle,1¢,13.112328767123287,13,Adolescents,155
Hard,0,correct,0.6662,0,134,7,1,Middle,1¢,13.112328767123287,13,Adolescents,155
Hard,0,correct,0.7103,0,135,7,1,Middle,1¢,13.112328767123287,13,Adolescents,155
Hard,1,correct,0.8063,0,136,7,1,Middle,1¢,13.112328767123287,13,Adolescents,155
Hard,0,too_slow,NA,1,137,7,NA,Middle,1¢,13.112328767123287,13,Adolescents,155
Hard,1,correct,0.8069,0,138,7,1,Middle,1¢,13.112328767123287,13,Adolescents,155
Hard,1,correct,0.7371,0,139,7,1,Middle,1¢,13.112328767123287,13,Adolescents,155
Hard,1,correct,0.6555,0,140,7,1,Middle,1¢,13.112328767123287,13,Adolescents,155
Hard,0,correct,0.8088,0,141,8,1,Middle,10¢,13.112328767123287,13,Adolescents,155
Hard,0,correct,0.7641,0,142,8,1,Middle,10¢,13.112328767123287,13,Adolescents,155
Hard,0,correct,0.6573,0,143,8,1,Middle,10¢,13.112328767123287,13,Adolescents,155
Hard,1,correct,0.6904,0,144,8,1,Middle,10¢,13.112328767123287,13,Adolescents,155
Hard,1,correct,0.9429,0,145,8,1,Middle,10¢,13.112328767123287,13,Adolescents,155
Hard,1,correct,0.692,0,146,8,1,Middle,10¢,13.112328767123287,13,Adolescents,155
Hard,0,correct,0.6658,0,147,8,1,Middle,10¢,13.112328767123287,13,Adolescents,155
Hard,0,correct,0.7747,0,148,8,1,Middle,10¢,13.112328767123287,13,Adolescents,155
Hard,0,correct,0.6744,0,149,8,1,Middle,10¢,13.112328767123287,13,Adolescents,155
Hard,0,correct,0.6594,0,150,8,1,Middle,10¢,13.112328767123287,13,Adolescents,155
Hard,1,correct,0.6589,0,151,8,1,Middle,10¢,13.112328767123287,13,Adolescents,155
Hard,1,correct,0.8563,0,152,8,1,Middle,10¢,13.112328767123287,13,Adolescents,155
Hard,1,correct,1.0054,0,153,8,1,Middle,10¢,13.112328767123287,13,Adolescents,155
Hard,0,correct,0.6527,0,154,8,1,Middle,10¢,13.112328767123287,13,Adolescents,155
Hard,1,correct,0.8239,0,155,8,1,Middle,10¢,13.112328767123287,13,Adolescents,155
Hard,0,correct,1.0876,0,156,8,1,Middle,10¢,13.112328767123287,13,Adolescents,155
Hard,1,correct,1.2075,0,157,8,1,Middle,10¢,13.112328767123287,13,Adolescents,155
Hard,0,correct,1.083,0,158,8,1,Middle,10¢,13.112328767123287,13,Adolescents,155
Hard,1,correct,0.7897,0,159,8,1,Middle,10¢,13.112328767123287,13,Adolescents,155
Hard,1,correct,0.7741,0,160,8,1,Middle,10¢,13.112328767123287,13,Adolescents,155
Easy,0,correct,0.6928,0,161,9,1,Late,10¢,13.112328767123287,13,Adolescents,155
Easy,0,correct,0.631,0,162,9,1,Late,10¢,13.112328767123287,13,Adolescents,155
Easy,1,correct,1.0068,0,163,9,1,Late,10¢,13.112328767123287,13,Adolescents,155
Easy,0,correct,0.6224,0,164,9,1,Late,10¢,13.112328767123287,13,Adolescents,155
Easy,0,correct,0.7033,0,165,9,1,Late,10¢,13.112328767123287,13,Adolescents,155
Easy,0,correct,0.693,0,166,9,1,Late,10¢,13.112328767123287,13,Adolescents,155
Easy,0,correct,1.3401,0,167,9,1,Late,10¢,13.112328767123287,13,Adolescents,155
Easy,0,correct,0.7311,0,168,9,1,Late,10¢,13.112328767123287,13,Adolescents,155
Easy,0,correct,0.6413,0,169,9,1,Late,10¢,13.112328767123287,13,Adolescents,155
Easy,1,correct,0.7586,0,170,9,1,Late,10¢,13.112328767123287,13,Adolescents,155
Easy,1,correct,1.0445,0,171,9,1,Late,10¢,13.112328767123287,13,Adolescents,155
Easy,0,correct,0.9409,0,172,9,1,Late,10¢,13.112328767123287,13,Adolescents,155
Easy,0,correct,0.5577,0,173,9,1,Late,10¢,13.112328767123287,13,Adolescents,155
Easy,0,correct,0.7208,0,174,9,1,Late,10¢,13.112328767123287,13,Adolescents,155
Easy,0,correct,0.7091,0,175,9,1,Late,10¢,13.112328767123287,13,Adolescents,155
Easy,0,correct,0.7072,0,176,9,1,Late,10¢,13.112328767123287,13,Adolescents,155
Easy,1,correct,0.8083,0,177,9,1,Late,10¢,13.112328767123287,13,Adolescents,155
Easy,0,correct,0.7397,0,178,9,1,Late,10¢,13.112328767123287,13,Adolescents,155
Easy,0,correct,1.0771,0,179,9,1,Late,10¢,13.112328767123287,13,Adolescents,155
Easy,0,correct,0.7721,0,180,9,1,Late,10¢,13.112328767123287,13,Adolescents,155
Easy,0,correct,0.87,0,181,10,1,Late,1¢,13.112328767123287,13,Adolescents,155
Easy,0,correct,0.6722,0,182,10,1,Late,1¢,13.112328767123287,13,Adolescents,155
Easy,0,correct,0.6153,0,183,10,1,Late,1¢,13.112328767123287,13,Adolescents,155
Easy,1,correct,0.7736,0,184,10,1,Late,1¢,13.112328767123287,13,Adolescents,155
Easy,0,correct,0.9256,0,185,10,1,Late,1¢,13.112328767123287,13,Adolescents,155
Easy,0,correct,0.6559,0,186,10,1,Late,1¢,13.112328767123287,13,Adolescents,155
Easy,0,correct,0.7787,0,187,10,1,Late,1¢,13.112328767123287,13,Adolescents,155
Easy,0,correct,0.6187,0,188,10,1,Late,1¢,13.112328767123287,13,Adolescents,155
Easy,0,correct,0.6264,0,189,10,1,Late,1¢,13.112328767123287,13,Adolescents,155
Easy,0,correct,0.798,0,190,10,1,Late,1¢,13.112328767123287,13,Adolescents,155
Easy,0,correct,0.8481,0,191,10,1,Late,1¢,13.112328767123287,13,Adolescents,155
Easy,1,correct,1.0893,0,192,10,1,Late,1¢,13.112328767123287,13,Adolescents,155
Easy,0,correct,1.3674,0,193,10,1,Late,1¢,13.112328767123287,13,Adolescents,155
Easy,0,too_slow,NA,1,194,10,NA,Late,1¢,13.112328767123287,13,Adolescents,155
Easy,0,correct,0.7733,0,195,10,1,Late,1¢,13.112328767123287,13,Adolescents,155
Easy,0,correct,0.7901,0,196,10,1,Late,1¢,13.112328767123287,13,Adolescents,155
Easy,1,correct,0.6868,0,197,10,1,Late,1¢,13.112328767123287,13,Adolescents,155
Easy,0,correct,0.7943,0,198,10,1,Late,1¢,13.112328767123287,13,Adolescents,155
Easy,0,correct,0.7244,0,199,10,1,Late,1¢,13.112328767123287,13,Adolescents,155
Easy,1,correct,0.5746,0,200,10,1,Late,1¢,13.112328767123287,13,Adolescents,155
Hard,0,correct,0.784,0,201,11,1,Late,10¢,13.112328767123287,13,Adolescents,155
Hard,1,correct,0.6048,0,202,11,1,Late,10¢,13.112328767123287,13,Adolescents,155
Hard,1,correct,0.6402,0,203,11,1,Late,10¢,13.112328767123287,13,Adolescents,155
Hard,0,correct,0.603,0,204,11,1,Late,10¢,13.112328767123287,13,Adolescents,155
Hard,1,correct,1.0079,0,205,11,1,Late,10¢,13.112328767123287,13,Adolescents,155
Hard,1,correct,1.0082,0,206,11,1,Late,10¢,13.112328767123287,13,Adolescents,155
Hard,1,correct,0.7552,0,207,11,1,Late,10¢,13.112328767123287,13,Adolescents,155
Hard,0,correct,0.8155,0,208,11,1,Late,10¢,13.112328767123287,13,Adolescents,155
Hard,1,correct,0.8387,0,209,11,1,Late,10¢,13.112328767123287,13,Adolescents,155
Hard,0,correct,0.6658,0,210,11,1,Late,10¢,13.112328767123287,13,Adolescents,155
Hard,0,correct,0.7385,0,211,11,1,Late,10¢,13.112328767123287,13,Adolescents,155
Hard,0,correct,0.6922,0,212,11,1,Late,10¢,13.112328767123287,13,Adolescents,155
Hard,1,correct,0.7086,0,213,11,1,Late,10¢,13.112328767123287,13,Adolescents,155
Hard,1,correct,0.9244,0,214,11,1,Late,10¢,13.112328767123287,13,Adolescents,155
Hard,0,correct,0.5433,0,215,11,1,Late,10¢,13.112328767123287,13,Adolescents,155
Hard,1,correct,0.7584,0,216,11,1,Late,10¢,13.112328767123287,13,Adolescents,155
Hard,0,correct,0.6406,0,217,11,1,Late,10¢,13.112328767123287,13,Adolescents,155
Hard,0,correct,1.1382,0,218,11,1,Late,10¢,13.112328767123287,13,Adolescents,155
Hard,1,correct,0.6563,0,219,11,1,Late,10¢,13.112328767123287,13,Adolescents,155
Hard,0,correct,1.0934,0,220,11,1,Late,10¢,13.112328767123287,13,Adolescents,155
Hard,0,correct,1.0945,0,221,12,1,Late,1¢,13.112328767123287,13,Adolescents,155
Hard,0,correct,0.6588,0,222,12,1,Late,1¢,13.112328767123287,13,Adolescents,155
Hard,1,correct,0.8098,0,223,12,1,Late,1¢,13.112328767123287,13,Adolescents,155
Hard,0,correct,0.922,0,224,12,1,Late,1¢,13.112328767123287,13,Adolescents,155
Hard,1,correct,0.9405,0,225,12,1,Late,1¢,13.112328767123287,13,Adolescents,155
Hard,0,correct,0.724,0,226,12,1,Late,1¢,13.112328767123287,13,Adolescents,155
Hard,1,correct,1.4751,0,227,12,1,Late,1¢,13.112328767123287,13,Adolescents,155
Hard,0,incorrect,0.6746,0,228,12,0,Late,1¢,13.112328767123287,13,Adolescents,155
Hard,1,correct,0.6602,0,229,12,1,Late,1¢,13.112328767123287,13,Adolescents,155
Hard,1,correct,1.3587,0,230,12,1,Late,1¢,13.112328767123287,13,Adolescents,155
Hard,1,correct,0.6189,0,231,12,1,Late,1¢,13.112328767123287,13,Adolescents,155
Hard,0,correct,1.0235,0,232,12,1,Late,1¢,13.112328767123287,13,Adolescents,155
Hard,0,correct,0.8905,0,233,12,1,Late,1¢,13.112328767123287,13,Adolescents,155
Hard,1,correct,0.6748,0,234,12,1,Late,1¢,13.112328767123287,13,Adolescents,155
Hard,1,correct,0.606,0,235,12,1,Late,1¢,13.112328767123287,13,Adolescents,155
Hard,0,correct,0.5923,0,236,12,1,Late,1¢,13.112328767123287,13,Adolescents,155
Hard,1,correct,0.6611,0,237,12,1,Late,1¢,13.112328767123287,13,Adolescents,155
Hard,1,correct,0.6222,0,238,12,1,Late,1¢,13.112328767123287,13,Adolescents,155
Hard,0,correct,0.6257,0,239,12,1,Late,1¢,13.112328767123287,13,Adolescents,155
Hard,0,correct,0.5891,0,240,12,1,Late,1¢,13.112328767123287,13,Adolescents,155
Easy,0,too_slow,NA,1,1,1,NA,Early,10¢,15.238356164383562,15,Adolescents,156
Easy,0,correct,1.5535,0,2,1,1,Early,10¢,15.238356164383562,15,Adolescents,156
Easy,0,correct,1.2536,0,3,1,1,Early,10¢,15.238356164383562,15,Adolescents,156
Easy,1,correct,1.6608,0,4,1,1,Early,10¢,15.238356164383562,15,Adolescents,156
Easy,1,correct,0.8829,0,5,1,1,Early,10¢,15.238356164383562,15,Adolescents,156
Easy,0,correct,1.0124,0,6,1,1,Early,10¢,15.238356164383562,15,Adolescents,156
Easy,1,correct,0.8757,0,7,1,1,Early,10¢,15.238356164383562,15,Adolescents,156
Easy,0,correct,0.85,0,8,1,1,Early,10¢,15.238356164383562,15,Adolescents,156
Easy,0,correct,1.0336,0,9,1,1,Early,10¢,15.238356164383562,15,Adolescents,156
Easy,0,correct,0.9978,0,10,1,1,Early,10¢,15.238356164383562,15,Adolescents,156
Easy,0,correct,1.2501,0,11,1,1,Early,10¢,15.238356164383562,15,Adolescents,156
Easy,1,too_slow,NA,1,12,1,NA,Early,10¢,15.238356164383562,15,Adolescents,156
Easy,0,correct,1.1337,0,13,1,1,Early,10¢,15.238356164383562,15,Adolescents,156
Easy,0,correct,0.7997,0,14,1,1,Early,10¢,15.238356164383562,15,Adolescents,156
Easy,0,correct,0.8363,0,15,1,1,Early,10¢,15.238356164383562,15,Adolescents,156
Easy,0,correct,0.8498,0,16,1,1,Early,10¢,15.238356164383562,15,Adolescents,156
Easy,0,correct,1.1329,0,17,1,1,Early,10¢,15.238356164383562,15,Adolescents,156
Easy,0,correct,1.05,0,18,1,1,Early,10¢,15.238356164383562,15,Adolescents,156
Easy,0,correct,1.0196,0,19,1,1,Early,10¢,15.238356164383562,15,Adolescents,156
Easy,0,correct,0.9332,0,20,1,1,Early,10¢,15.238356164383562,15,Adolescents,156
Easy,0,correct,1.518,0,21,2,1,Early,1¢,15.238356164383562,15,Adolescents,156
Easy,1,correct,1.3447,0,22,2,1,Early,1¢,15.238356164383562,15,Adolescents,156
Easy,0,correct,1.6713,0,23,2,1,Early,1¢,15.238356164383562,15,Adolescents,156
Easy,0,correct,1.5257,0,24,2,1,Early,1¢,15.238356164383562,15,Adolescents,156
Easy,0,correct,0.7817,0,25,2,1,Early,1¢,15.238356164383562,15,Adolescents,156
Easy,1,correct,0.9503,0,26,2,1,Early,1¢,15.238356164383562,15,Adolescents,156
Easy,0,correct,0.8693,0,27,2,1,Early,1¢,15.238356164383562,15,Adolescents,156
Easy,0,correct,1.1337,0,28,2,1,Early,1¢,15.238356164383562,15,Adolescents,156
Easy,0,correct,0.8998,0,29,2,1,Early,1¢,15.238356164383562,15,Adolescents,156
Easy,0,correct,0.7629,0,30,2,1,Early,1¢,15.238356164383562,15,Adolescents,156
Easy,0,correct,1.7686,0,31,2,1,Early,1¢,15.238356164383562,15,Adolescents,156
Easy,0,correct,0.8911,0,32,2,1,Early,1¢,15.238356164383562,15,Adolescents,156
Easy,1,correct,2.0029,0,33,2,1,Early,1¢,15.238356164383562,15,Adolescents,156
Easy,0,correct,1.7548,0,34,2,1,Early,1¢,15.238356164383562,15,Adolescents,156
Easy,0,too_slow,NA,1,35,2,NA,Early,1¢,15.238356164383562,15,Adolescents,156
Easy,0,correct,1.1001,0,36,2,1,Early,1¢,15.238356164383562,15,Adolescents,156
Easy,0,correct,0.9695,0,37,2,1,Early,1¢,15.238356164383562,15,Adolescents,156
Easy,1,correct,1.201,0,38,2,1,Early,1¢,15.238356164383562,15,Adolescents,156
Easy,0,correct,0.8167,0,39,2,1,Early,1¢,15.238356164383562,15,Adolescents,156
Easy,0,correct,1.518,0,40,2,1,Early,1¢,15.238356164383562,15,Adolescents,156
Hard,0,correct,1.2698,0,41,3,1,Early,10¢,15.238356164383562,15,Adolescents,156
Hard,0,correct,0.9172,0,42,3,1,Early,10¢,15.238356164383562,15,Adolescents,156
Hard,0,correct,0.9864,0,43,3,1,Early,10¢,15.238356164383562,15,Adolescents,156
Hard,0,correct,0.8664,0,44,3,1,Early,10¢,15.238356164383562,15,Adolescents,156
Hard,1,correct,1.1667,0,45,3,1,Early,10¢,15.238356164383562,15,Adolescents,156
Hard,1,correct,0.8831,0,46,3,1,Early,10¢,15.238356164383562,15,Adolescents,156
Hard,0,correct,0.8076,0,47,3,1,Early,10¢,15.238356164383562,15,Adolescents,156
Hard,1,correct,1.3849,0,48,3,1,Early,10¢,15.238356164383562,15,Adolescents,156
Hard,0,correct,0.9835,0,49,3,1,Early,10¢,15.238356164383562,15,Adolescents,156
Hard,0,correct,1.9523,0,50,3,1,Early,10¢,15.238356164383562,15,Adolescents,156
Hard,1,correct,0.7994,0,51,3,1,Early,10¢,15.238356164383562,15,Adolescents,156
Hard,0,incorrect,0.9,0,52,3,0,Early,10¢,15.238356164383562,15,Adolescents,156
Hard,1,correct,0.716,0,53,3,1,Early,10¢,15.238356164383562,15,Adolescents,156
Hard,0,correct,1.0111,0,54,3,1,Early,10¢,15.238356164383562,15,Adolescents,156
Hard,0,correct,0.5877,0,55,3,1,Early,10¢,15.238356164383562,15,Adolescents,156
Hard,1,correct,0.9832,0,56,3,1,Early,10¢,15.238356164383562,15,Adolescents,156
Hard,1,correct,0.9161,0,57,3,1,Early,10¢,15.238356164383562,15,Adolescents,156
Hard,1,correct,0.8833,0,58,3,1,Early,10¢,15.238356164383562,15,Adolescents,156
Hard,1,correct,0.9332,0,59,3,1,Early,10¢,15.238356164383562,15,Adolescents,156
Hard,1,correct,1.1169,0,60,3,1,Early,10¢,15.238356164383562,15,Adolescents,156
Hard,0,correct,1.2003,0,61,4,1,Early,1¢,15.238356164383562,15,Adolescents,156
Hard,0,correct,1.4512,0,62,4,1,Early,1¢,15.238356164383562,15,Adolescents,156
Hard,0,correct,1.3594,0,63,4,1,Early,1¢,15.238356164383562,15,Adolescents,156
Hard,0,too_slow,NA,1,64,4,NA,Early,1¢,15.238356164383562,15,Adolescents,156
Hard,1,correct,0.9501,0,65,4,1,Early,1¢,15.238356164383562,15,Adolescents,156
Hard,0,too_slow,NA,1,66,4,NA,Early,1¢,15.238356164383562,15,Adolescents,156
Hard,0,correct,1.9836,0,67,4,1,Early,1¢,15.238356164383562,15,Adolescents,156
Hard,1,correct,0.8963,0,68,4,1,Early,1¢,15.238356164383562,15,Adolescents,156
Hard,1,correct,1.3845,0,69,4,1,Early,1¢,15.238356164383562,15,Adolescents,156
Hard,0,correct,0.9252,0,70,4,1,Early,1¢,15.238356164383562,15,Adolescents,156
Hard,1,correct,1.6267,0,71,4,1,Early,1¢,15.238356164383562,15,Adolescents,156
Hard,1,correct,1.401,0,72,4,1,Early,1¢,15.238356164383562,15,Adolescents,156
Hard,0,correct,1.0502,0,73,4,1,Early,1¢,15.238356164383562,15,Adolescents,156
Hard,1,correct,1.4346,0,74,4,1,Early,1¢,15.238356164383562,15,Adolescents,156
Hard,1,correct,1.3977,0,75,4,1,Early,1¢,15.238356164383562,15,Adolescents,156
Hard,1,correct,1.3342,0,76,4,1,Early,1¢,15.238356164383562,15,Adolescents,156
Hard,1,correct,1.4489,0,77,4,1,Early,1¢,15.238356164383562,15,Adolescents,156
Hard,1,correct,1.5591,0,78,4,1,Early,1¢,15.238356164383562,15,Adolescents,156
Hard,0,correct,1.1868,0,79,4,1,Early,1¢,15.238356164383562,15,Adolescents,156
Hard,0,correct,0.8662,0,80,4,1,Early,1¢,15.238356164383562,15,Adolescents,156
Easy,0,correct,2.0049,0,81,5,1,Middle,1¢,15.238356164383562,15,Adolescents,156
Easy,0,correct,1.46,0,82,5,1,Middle,1¢,15.238356164383562,15,Adolescents,156
Easy,0,correct,1.1128,0,83,5,1,Middle,1¢,15.238356164383562,15,Adolescents,156
Easy,0,correct,1.2564,0,84,5,1,Middle,1¢,15.238356164383562,15,Adolescents,156
Easy,0,correct,1.5279,0,85,5,1,Middle,1¢,15.238356164383562,15,Adolescents,156
Easy,1,correct,1.198,0,86,5,1,Middle,1¢,15.238356164383562,15,Adolescents,156
Easy,0,correct,1.5305,0,87,5,1,Middle,1¢,15.238356164383562,15,Adolescents,156
Easy,0,correct,1.6449,0,88,5,1,Middle,1¢,15.238356164383562,15,Adolescents,156
Easy,0,correct,1.1274,0,89,5,1,Middle,1¢,15.238356164383562,15,Adolescents,156
Easy,0,correct,1.8306,0,90,5,1,Middle,1¢,15.238356164383562,15,Adolescents,156
Easy,0,correct,1.5442,0,91,5,1,Middle,1¢,15.238356164383562,15,Adolescents,156
Easy,1,correct,1.5097,0,92,5,1,Middle,1¢,15.238356164383562,15,Adolescents,156
Easy,0,correct,1.1357,0,93,5,1,Middle,1¢,15.238356164383562,15,Adolescents,156
Easy,0,correct,1.4603,0,94,5,1,Middle,1¢,15.238356164383562,15,Adolescents,156
Easy,0,correct,1.1792,0,95,5,1,Middle,1¢,15.238356164383562,15,Adolescents,156
Easy,0,correct,1.0106,0,96,5,1,Middle,1¢,15.238356164383562,15,Adolescents,156
Easy,0,correct,0.7596,0,97,5,1,Middle,1¢,15.238356164383562,15,Adolescents,156
Easy,1,correct,0.7913,0,98,5,1,Middle,1¢,15.238356164383562,15,Adolescents,156
Easy,1,correct,1.262,0,99,5,1,Middle,1¢,15.238356164383562,15,Adolescents,156
Easy,0,too_slow,NA,1,100,5,NA,Middle,1¢,15.238356164383562,15,Adolescents,156
Easy,0,correct,1.6458,0,101,6,1,Middle,10¢,15.238356164383562,15,Adolescents,156
Easy,0,correct,1.1379,0,102,6,1,Middle,10¢,15.238356164383562,15,Adolescents,156
Easy,1,correct,1.0107,0,103,6,1,Middle,10¢,15.238356164383562,15,Adolescents,156
Easy,0,correct,1.2448,0,104,6,1,Middle,10¢,15.238356164383562,15,Adolescents,156
Easy,0,correct,1.1477,0,105,6,1,Middle,10¢,15.238356164383562,15,Adolescents,156
Easy,0,correct,1.2423,0,106,6,1,Middle,10¢,15.238356164383562,15,Adolescents,156
Easy,0,correct,1.4997,0,107,6,1,Middle,10¢,15.238356164383562,15,Adolescents,156
