"","Difficulty","do_switch","resp_type","keyTrial.rt","too_slow_trial","trial_num","block_num","correct","block_third","Incentive","ExactAge","FlooredAge","AgeGroup","participant"
"1","Easy",0,"correct",0.848,0,1,1,1,"Early","10¢",20.2575342465753,20,"Adults",151
"2","Easy",1,"correct",0.9108,0,2,1,1,"Early","10¢",20.2575342465753,20,"Adults",151
"3","Easy",0,"correct",0.6746,0,3,1,1,"Early","10¢",20.2575342465753,20,"Adults",151
"4","Easy",0,"correct",0.845,0,4,1,1,"Early","10¢",20.2575342465753,20,"Adults",151
"5","Easy",0,"correct",0.5644,0,5,1,1,"Early","10¢",20.2575342465753,20,"Adults",151
"6","Easy",1,"correct",0.6446,0,6,1,1,"Early","10¢",20.2575342465753,20,"Adults",151
"7","Easy",0,"correct",0.5607,0,7,1,1,"Early","10¢",20.2575342465753,20,"Adults",151
"8","Easy",0,"correct",0.636,0,8,1,1,"Early","10¢",20.2575342465753,20,"Adults",151
"9","Easy",0,"correct",0.7614,0,9,1,1,"Early","10¢",20.2575342465753,20,"Adults",151
"10","Easy",0,"correct",0.5551,0,10,1,1,"Early","10¢",20.2575342465753,20,"Adults",151
"11","Easy",1,"correct",0.904,0,11,1,1,"Early","10¢",20.2575342465753,20,"Adults",151
"12","Easy",0,"correct",0.7094,0,12,1,1,"Early","10¢",20.2575342465753,20,"Adults",151
"13","Easy",1,"correct",0.5129,0,13,1,1,"Early","10¢",20.2575342465753,20,"Adults",151
"14","Easy",0,"correct",0.4085,0,14,1,1,"Early","10¢",20.2575342465753,20,"Adults",151
"15","Easy",0,"correct",0.4149,0,15,1,1,"Early","10¢",20.2575342465753,20,"Adults",151
"16","Easy",0,"correct",0.4314,0,16,1,1,"Early","10¢",20.2575342465753,20,"Adults",151
"17","Easy",0,"correct",0.5,0,17,1,1,"Early","10¢",20.2575342465753,20,"Adults",151
"18","Easy",0,"incorrect",0.4949,0,18,1,0,"Early","10¢",20.2575342465753,20,"Adults",151
"19","Easy",0,"correct",0.6199,0,19,1,1,"Early","10¢",20.2575342465753,20,"Adults",151
"20","Easy",0,"correct",0.5359,0,20,1,1,"Early","10¢",20.2575342465753,20,"Adults",151
"21","Easy",0,"correct",0.7172,0,21,2,1,"Early","1¢",20.2575342465753,20,"Adults",151
"22","Easy",0,"correct",0.657,0,22,2,1,"Early","1¢",20.2575342465753,20,"Adults",151
"23","Easy",0,"correct",0.4495,0,23,2,1,"Early","1¢",20.2575342465753,20,"Adults",151
"24","Easy",0,"correct",0.4861,0,24,2,1,"Early","1¢",20.2575342465753,20,"Adults",151
"25","Easy",1,"correct",0.8381,0,25,2,1,"Early","1¢",20.2575342465753,20,"Adults",151
"26","Easy",0,"correct",0.8176,0,26,2,1,"Early","1¢",20.2575342465753,20,"Adults",151
"27","Easy",0,"correct",0.7382,0,27,2,1,"Early","1¢",20.2575342465753,20,"Adults",151
"28","Easy",0,"correct",0.7067,0,28,2,1,"Early","1¢",20.2575342465753,20,"Adults",151
"29","Easy",0,"correct",0.8078,0,29,2,1,"Early","1¢",20.2575342465753,20,"Adults",151
"30","Easy",0,"correct",0.734,0,30,2,1,"Early","1¢",20.2575342465753,20,"Adults",151
"31","Easy",0,"correct",0.751,0,31,2,1,"Early","1¢",20.2575342465753,20,"Adults",151
"32","Easy",1,"correct",0.7261,0,32,2,1,"Early","1¢",20.2575342465753,20,"Adults",151
"33","Easy",0,"correct",0.6112,0,33,2,1,"Early","1¢",20.2575342465753,20,"Adults",151
"34","Easy",0,"correct",0.6338,0,34,2,1,"Early","1¢",20.2575342465753,20,"Adults",151
"35","Easy",1,"correct",0.7912,0,35,2,1,"Early","1¢",20.2575342465753,20,"Adults",151
"36","Easy",0,"correct",0.6676,0,36,2,1,"Early","1¢",20.2575342465753,20,"Adults",151
"37","Easy",0,"correct",0.7507,0,37,2,1,"Early","1¢",20.2575342465753,20,"Adults",151
"38","Easy",0,"correct",0.7516,0,38,2,1,"Early","1¢",20.2575342465753,20,"Adults",151
"39","Easy",0,"correct",0.7845,0,39,2,1,"Early","1¢",20.2575342465753,20,"Adults",151
"40","Easy",1,"correct",0.7688,0,40,2,1,"Early","1¢",20.2575342465753,20,"Adults",151
"41","Hard",0,"correct",0.8264,0,41,3,1,"Early","10¢",20.2575342465753,20,"Adults",151
"42","Hard",1,"correct",0.6167,0,42,3,1,"Early","10¢",20.2575342465753,20,"Adults",151
"43","Hard",1,"correct",0.6173,0,43,3,1,"Early","10¢",20.2575342465753,20,"Adults",151
"44","Hard",0,"correct",0.6612,0,44,3,1,"Early","10¢",20.2575342465753,20,"Adults",151
"45","Hard",1,"correct",0.6996,0,45,3,1,"Early","10¢",20.2575342465753,20,"Adults",151
"46","Hard",1,"correct",0.6342,0,46,3,1,"Early","10¢",20.2575342465753,20,"Adults",151
"47","Hard",1,"correct",0.6405,0,47,3,1,"Early","10¢",20.2575342465753,20,"Adults",151
"48","Hard",0,"correct",0.6391,0,48,3,1,"Early","10¢",20.2575342465753,20,"Adults",151
"49","Hard",0,"correct",0.8487,0,49,3,1,"Early","10¢",20.2575342465753,20,"Adults",151
"50","Hard",0,"correct",0.5972,0,50,3,1,"Early","10¢",20.2575342465753,20,"Adults",151
"51","Hard",0,"correct",0.7191,0,51,3,1,"Early","10¢",20.2575342465753,20,"Adults",151
"52","Hard",0,"correct",0.6066,0,52,3,1,"Early","10¢",20.2575342465753,20,"Adults",151
"53","Hard",1,"correct",0.6343,0,53,3,1,"Early","10¢",20.2575342465753,20,"Adults",151
"54","Hard",0,"correct",0.6213,0,54,3,1,"Early","10¢",20.2575342465753,20,"Adults",151
"55","Hard",1,"correct",0.6515,0,55,3,1,"Early","10¢",20.2575342465753,20,"Adults",151
"56","Hard",1,"correct",0.5513,0,56,3,1,"Early","10¢",20.2575342465753,20,"Adults",151
"57","Hard",1,"correct",0.7649,0,57,3,1,"Early","10¢",20.2575342465753,20,"Adults",151
"58","Hard",1,"correct",0.5558,0,58,3,1,"Early","10¢",20.2575342465753,20,"Adults",151
"59","Hard",0,"correct",0.601,0,59,3,1,"Early","10¢",20.2575342465753,20,"Adults",151
"60","Hard",0,"correct",0.4514,0,60,3,1,"Early","10¢",20.2575342465753,20,"Adults",151
"61","Hard",0,"correct",0.6648,0,61,4,1,"Early","1¢",20.2575342465753,20,"Adults",151
"62","Hard",0,"correct",0.5505,0,62,4,1,"Early","1¢",20.2575342465753,20,"Adults",151
"63","Hard",0,"correct",0.6554,0,63,4,1,"Early","1¢",20.2575342465753,20,"Adults",151
"64","Hard",1,"correct",0.7063,0,64,4,1,"Early","1¢",20.2575342465753,20,"Adults",151
"65","Hard",1,"correct",0.6384,0,65,4,1,"Early","1¢",20.2575342465753,20,"Adults",151
"66","Hard",1,"correct",0.738,0,66,4,1,"Early","1¢",20.2575342465753,20,"Adults",151
"67","Hard",1,"correct",0.5053,0,67,4,1,"Early","1¢",20.2575342465753,20,"Adults",151
"68","Hard",0,"correct",0.6495,0,68,4,1,"Early","1¢",20.2575342465753,20,"Adults",151
"69","Hard",1,"correct",0.7374,0,69,4,1,"Early","1¢",20.2575342465753,20,"Adults",151
"70","Hard",0,"correct",1.0544,0,70,4,1,"Early","1¢",20.2575342465753,20,"Adults",151
"71","Hard",1,"correct",0.5536,0,71,4,1,"Early","1¢",20.2575342465753,20,"Adults",151
"72","Hard",0,"correct",0.6203,0,72,4,1,"Early","1¢",20.2575342465753,20,"Adults",151
"73","Hard",1,"correct",0.7373,0,73,4,1,"Early","1¢",20.2575342465753,20,"Adults",151
"74","Hard",1,"correct",0.5391,0,74,4,1,"Early","1¢",20.2575342465753,20,"Adults",151
"75","Hard",0,"correct",0.5226,0,75,4,1,"Early","1¢",20.2575342465753,20,"Adults",151
"76","Hard",0,"correct",0.5776,0,76,4,1,"Early","1¢",20.2575342465753,20,"Adults",151
"77","Hard",1,"correct",0.7412,0,77,4,1,"Early","1¢",20.2575342465753,20,"Adults",151
"78","Hard",0,"correct",0.638,0,78,4,1,"Early","1¢",20.2575342465753,20,"Adults",151
"79","Hard",0,"correct",0.7535,0,79,4,1,"Early","1¢",20.2575342465753,20,"Adults",151
"80","Hard",1,"correct",0.5782,0,80,4,1,"Early","1¢",20.2575342465753,20,"Adults",151
"81","Easy",0,"too_slow",NA,1,81,5,NA,"Middle","1¢",20.2575342465753,20,"Adults",151
"82","Easy",0,"too_slow",NA,1,82,5,NA,"Middle","1¢",20.2575342465753,20,"Adults",151
"83","Easy",0,"correct",0.6164,0,83,5,1,"Middle","1¢",20.2575342465753,20,"Adults",151
"84","Easy",0,"correct",0.4768,0,84,5,1,"Middle","1¢",20.2575342465753,20,"Adults",151
"85","Easy",0,"correct",0.5176,0,85,5,1,"Middle","1¢",20.2575342465753,20,"Adults",151
"86","Easy",0,"correct",1.0001,0,86,5,1,"Middle","1¢",20.2575342465753,20,"Adults",151
"87","Easy",0,"correct",0.7093,0,87,5,1,"Middle","1¢",20.2575342465753,20,"Adults",151
"88","Easy",0,"correct",0.5198,0,88,5,1,"Middle","1¢",20.2575342465753,20,"Adults",151
"89","Easy",1,"correct",0.7991,0,89,5,1,"Middle","1¢",20.2575342465753,20,"Adults",151
"90","Easy",0,"correct",0.9006,0,90,5,1,"Middle","1¢",20.2575342465753,20,"Adults",151
"91","Easy",0,"correct",0.6925,0,91,5,1,"Middle","1¢",20.2575342465753,20,"Adults",151
"92","Easy",0,"correct",1.0508,0,92,5,1,"Middle","1¢",20.2575342465753,20,"Adults",151
"93","Easy",1,"correct",0.7429,0,93,5,1,"Middle","1¢",20.2575342465753,20,"Adults",151
"94","Easy",0,"correct",0.6407,0,94,5,1,"Middle","1¢",20.2575342465753,20,"Adults",151
"95","Easy",0,"correct",0.6678,0,95,5,1,"Middle","1¢",20.2575342465753,20,"Adults",151
"96","Easy",0,"correct",0.5665,0,96,5,1,"Middle","1¢",20.2575342465753,20,"Adults",151
"97","Easy",1,"correct",0.7153,0,97,5,1,"Middle","1¢",20.2575342465753,20,"Adults",151
"98","Easy",0,"correct",0.7785,0,98,5,1,"Middle","1¢",20.2575342465753,20,"Adults",151
"99","Easy",0,"correct",1.2382,0,99,5,1,"Middle","1¢",20.2575342465753,20,"Adults",151
"100","Easy",1,"too_slow",NA,1,100,5,NA,"Middle","1¢",20.2575342465753,20,"Adults",151
"101","Easy",0,"correct",0.9665,0,101,6,1,"Middle","10¢",20.2575342465753,20,"Adults",151
"102","Easy",0,"correct",0.8156,0,102,6,1,"Middle","10¢",20.2575342465753,20,"Adults",151
"103","Easy",1,"correct",1.2495,0,103,6,1,"Middle","10¢",20.2575342465753,20,"Adults",151
"104","Easy",0,"correct",1.2437,0,104,6,1,"Middle","10¢",20.2575342465753,20,"Adults",151
"105","Easy",0,"correct",0.8162,0,105,6,1,"Middle","10¢",20.2575342465753,20,"Adults",151
"106","Easy",1,"correct",0.7326,0,106,6,1,"Middle","10¢",20.2575342465753,20,"Adults",151
"107","Easy",1,"correct",0.7171,0,107,6,1,"Middle","10¢",20.2575342465753,20,"Adults",151
"108","Easy",0,"correct",0.8074,0,108,6,1,"Middle","10¢",20.2575342465753,20,"Adults",151
"109","Easy",0,"correct",0.6893,0,109,6,1,"Middle","10¢",20.2575342465753,20,"Adults",151
"110","Easy",0,"correct",0.617,0,110,6,1,"Middle","10¢",20.2575342465753,20,"Adults",151
"111","Easy",0,"correct",0.7081,0,111,6,1,"Middle","10¢",20.2575342465753,20,"Adults",151
"112","Easy",0,"correct",0.6271,0,112,6,1,"Middle","10¢",20.2575342465753,20,"Adults",151
"113","Easy",0,"correct",0.6532,0,113,6,1,"Middle","10¢",20.2575342465753,20,"Adults",151
"114","Easy",0,"correct",0.8335,0,114,6,1,"Middle","10¢",20.2575342465753,20,"Adults",151
"115","Easy",0,"correct",0.567,0,115,6,1,"Middle","10¢",20.2575342465753,20,"Adults",151
"116","Easy",0,"correct",1.0042,0,116,6,1,"Middle","10¢",20.2575342465753,20,"Adults",151
"117","Easy",0,"correct",0.6949,0,117,6,1,"Middle","10¢",20.2575342465753,20,"Adults",151
"118","Easy",1,"correct",0.6324,0,118,6,1,"Middle","10¢",20.2575342465753,20,"Adults",151
"119","Easy",0,"correct",0.6,0,119,6,1,"Middle","10¢",20.2575342465753,20,"Adults",151
"120","Easy",0,"correct",0.6341,0,120,6,1,"Middle","10¢",20.2575342465753,20,"Adults",151
"121","Hard",0,"correct",0.7009,0,121,7,1,"Middle","1¢",20.2575342465753,20,"Adults",151
"122","Hard",0,"correct",0.56,0,122,7,1,"Middle","1¢",20.2575342465753,20,"Adults",151
"123","Hard",1,"correct",0.7219,0,123,7,1,"Middle","1¢",20.2575342465753,20,"Adults",151
"124","Hard",1,"correct",0.6403,0,124,7,1,"Middle","1¢",20.2575342465753,20,"Adults",151
"125","Hard",1,"correct",0.8038,0,125,7,1,"Middle","1¢",20.2575342465753,20,"Adults",151
"126","Hard",0,"correct",0.6666,0,126,7,1,"Middle","1¢",20.2575342465753,20,"Adults",151
"127","Hard",0,"correct",1.1778,0,127,7,1,"Middle","1¢",20.2575342465753,20,"Adults",151
"128","Hard",0,"correct",0.8395,0,128,7,1,"Middle","1¢",20.2575342465753,20,"Adults",151
"129","Hard",0,"correct",0.9689,0,129,7,1,"Middle","1¢",20.2575342465753,20,"Adults",151
"130","Hard",0,"correct",0.617,0,130,7,1,"Middle","1¢",20.2575342465753,20,"Adults",151
"131","Hard",0,"correct",0.6246,0,131,7,1,"Middle","1¢",20.2575342465753,20,"Adults",151
"132","Hard",1,"correct",0.5696,0,132,7,1,"Middle","1¢",20.2575342465753,20,"Adults",151
"133","Hard",1,"correct",0.5374,0,133,7,1,"Middle","1¢",20.2575342465753,20,"Adults",151
"134","Hard",1,"correct",0.6506,0,134,7,1,"Middle","1¢",20.2575342465753,20,"Adults",151
"135","Hard",0,"correct",0.6831,0,135,7,1,"Middle","1¢",20.2575342465753,20,"Adults",151
"136","Hard",0,"correct",0.533,0,136,7,1,"Middle","1¢",20.2575342465753,20,"Adults",151
"137","Hard",1,"correct",0.7501,0,137,7,1,"Middle","1¢",20.2575342465753,20,"Adults",151
"138","Hard",1,"correct",0.5338,0,138,7,1,"Middle","1¢",20.2575342465753,20,"Adults",151
"139","Hard",1,"correct",0.7753,0,139,7,1,"Middle","1¢",20.2575342465753,20,"Adults",151
"140","Hard",1,"correct",0.8501,0,140,7,1,"Middle","1¢",20.2575342465753,20,"Adults",151
"141","Hard",0,"correct",0.6505,0,141,8,1,"Middle","10¢",20.2575342465753,20,"Adults",151
"142","Hard",1,"correct",0.6834,0,142,8,1,"Middle","10¢",20.2575342465753,20,"Adults",151
"143","Hard",0,"correct",0.7842,0,143,8,1,"Middle","10¢",20.2575342465753,20,"Adults",151
"144","Hard",1,"correct",0.4837,0,144,8,1,"Middle","10¢",20.2575342465753,20,"Adults",151
"145","Hard",1,"correct",0.55,0,145,8,1,"Middle","10¢",20.2575342465753,20,"Adults",151
"146","Hard",0,"correct",0.6015,0,146,8,1,"Middle","10¢",20.2575342465753,20,"Adults",151
"147","Hard",0,"correct",0.7709,0,147,8,1,"Middle","10¢",20.2575342465753,20,"Adults",151
"148","Hard",0,"correct",0.7247,0,148,8,1,"Middle","10¢",20.2575342465753,20,"Adults",151
"149","Hard",0,"correct",0.717,0,149,8,1,"Middle","10¢",20.2575342465753,20,"Adults",151
"150","Hard",0,"correct",0.6034,0,150,8,1,"Middle","10¢",20.2575342465753,20,"Adults",151
"151","Hard",1,"correct",0.5016,0,151,8,1,"Middle","10¢",20.2575342465753,20,"Adults",151
"152","Hard",1,"correct",0.6334,0,152,8,1,"Middle","10¢",20.2575342465753,20,"Adults",151
"153","Hard",1,"correct",0.5078,0,153,8,1,"Middle","10¢",20.2575342465753,20,"Adults",151
"154","Hard",1,"correct",0.7028,0,154,8,1,"Middle","10¢",20.2575342465753,20,"Adults",151
"155","Hard",1,"correct",0.5674,0,155,8,1,"Middle","10¢",20.2575342465753,20,"Adults",151
"156","Hard",0,"correct",0.6234,0,156,8,1,"Middle","10¢",20.2575342465753,20,"Adults",151
"157","Hard",0,"correct",0.8778,0,157,8,1,"Middle","10¢",20.2575342465753,20,"Adults",151
"158","Hard",0,"correct",0.7528,0,158,8,1,"Middle","10¢",20.2575342465753,20,"Adults",151
"159","Hard",1,"correct",1.2492,0,159,8,1,"Middle","10¢",20.2575342465753,20,"Adults",151
"160","Hard",1,"correct",0.5106,0,160,8,1,"Middle","10¢",20.2575342465753,20,"Adults",151
"161","Easy",0,"correct",0.5917,0,161,9,1,"Late","10¢",20.2575342465753,20,"Adults",151
"162","Easy",0,"correct",0.5742,0,162,9,1,"Late","10¢",20.2575342465753,20,"Adults",151
"163","Easy",0,"correct",0.4606,0,163,9,1,"Late","10¢",20.2575342465753,20,"Adults",151
"164","Easy",1,"correct",0.5945,0,164,9,1,"Late","10¢",20.2575342465753,20,"Adults",151
"165","Easy",0,"correct",0.6657,0,165,9,1,"Late","10¢",20.2575342465753,20,"Adults",151
"166","Easy",1,"correct",0.7898,0,166,9,1,"Late","10¢",20.2575342465753,20,"Adults",151
"167","Easy",0,"correct",0.591,0,167,9,1,"Late","10¢",20.2575342465753,20,"Adults",151
"168","Easy",0,"correct",0.6138,0,168,9,1,"Late","10¢",20.2575342465753,20,"Adults",151
"169","Easy",1,"correct",0.7967,0,169,9,1,"Late","10¢",20.2575342465753,20,"Adults",151
"170","Easy",0,"correct",0.6565,0,170,9,1,"Late","10¢",20.2575342465753,20,"Adults",151
"171","Easy",0,"correct",0.6245,0,171,9,1,"Late","10¢",20.2575342465753,20,"Adults",151
"172","Easy",0,"correct",0.7161,0,172,9,1,"Late","10¢",20.2575342465753,20,"Adults",151
"173","Easy",0,"correct",0.6744,0,173,9,1,"Late","10¢",20.2575342465753,20,"Adults",151
"174","Easy",0,"correct",0.8798,0,174,9,1,"Late","10¢",20.2575342465753,20,"Adults",151
"175","Easy",0,"correct",1.2618,0,175,9,1,"Late","10¢",20.2575342465753,20,"Adults",151
"176","Easy",0,"correct",0.7691,0,176,9,1,"Late","10¢",20.2575342465753,20,"Adults",151
"177","Easy",1,"correct",0.5822,0,177,9,1,"Late","10¢",20.2575342465753,20,"Adults",151
"178","Easy",0,"correct",0.8604,0,178,9,1,"Late","10¢",20.2575342465753,20,"Adults",151
"179","Easy",0,"correct",0.4485,0,179,9,1,"Late","10¢",20.2575342465753,20,"Adults",151
"180","Easy",0,"correct",0.3993,0,180,9,1,"Late","10¢",20.2575342465753,20,"Adults",151
"181","Easy",0,"correct",0.8563,0,181,10,1,"Late","1¢",20.2575342465753,20,"Adults",151
"182","Easy",0,"correct",0.5075,0,182,10,1,"Late","1¢",20.2575342465753,20,"Adults",151
"183","Easy",1,"correct",0.7587,0,183,10,1,"Late","1¢",20.2575342465753,20,"Adults",151
"184","Easy",0,"correct",1.0144,0,184,10,1,"Late","1¢",20.2575342465753,20,"Adults",151
"185","Easy",0,"correct",0.7228,0,185,10,1,"Late","1¢",20.2575342465753,20,"Adults",151
"186","Easy",0,"correct",0.7741,0,186,10,1,"Late","1¢",20.2575342465753,20,"Adults",151
"187","Easy",1,"correct",1.1465,0,187,10,1,"Late","1¢",20.2575342465753,20,"Adults",151
"188","Easy",1,"correct",0.9979,0,188,10,1,"Late","1¢",20.2575342465753,20,"Adults",151
"189","Easy",0,"correct",0.5767,0,189,10,1,"Late","1¢",20.2575342465753,20,"Adults",151
"190","Easy",0,"correct",0.6656,0,190,10,1,"Late","1¢",20.2575342465753,20,"Adults",151
"191","Easy",0,"correct",0.633,0,191,10,1,"Late","1¢",20.2575342465753,20,"Adults",151
"192","Easy",0,"correct",0.6559,0,192,10,1,"Late","1¢",20.2575342465753,20,"Adults",151
"193","Easy",0,"correct",0.7595,0,193,10,1,"Late","1¢",20.2575342465753,20,"Adults",151
"194","Easy",0,"correct",0.4982,0,194,10,1,"Late","1¢",20.2575342465753,20,"Adults",151
"195","Easy",0,"correct",0.6378,0,195,10,1,"Late","1¢",20.2575342465753,20,"Adults",151
"196","Easy",1,"correct",0.4924,0,196,10,1,"Late","1¢",20.2575342465753,20,"Adults",151
"197","Easy",0,"correct",0.5971,0,197,10,1,"Late","1¢",20.2575342465753,20,"Adults",151
"198","Easy",0,"correct",0.7587,0,198,10,1,"Late","1¢",20.2575342465753,20,"Adults",151
"199","Easy",0,"correct",0.6476,0,199,10,1,"Late","1¢",20.2575342465753,20,"Adults",151
"200","Easy",0,"correct",0.4815,0,200,10,1,"Late","1¢",20.2575342465753,20,"Adults",151
"201","Hard",0,"correct",0.6196,0,201,11,1,"Late","10¢",20.2575342465753,20,"Adults",151
"202","Hard",0,"correct",0.6671,0,202,11,1,"Late","10¢",20.2575342465753,20,"Adults",151
"203","Hard",1,"correct",0.6115,0,203,11,1,"Late","10¢",20.2575342465753,20,"Adults",151
"204","Hard",1,"correct",0.7626,0,204,11,1,"Late","10¢",20.2575342465753,20,"Adults",151
"205","Hard",1,"correct",0.8969,0,205,11,1,"Late","10¢",20.2575342465753,20,"Adults",151
"206","Hard",1,"correct",0.5054,0,206,11,1,"Late","10¢",20.2575342465753,20,"Adults",151
"207","Hard",1,"correct",0.5767,0,207,11,1,"Late","10¢",20.2575342465753,20,"Adults",151
"208","Hard",0,"correct",0.5807,0,208,11,1,"Late","10¢",20.2575342465753,20,"Adults",151
"209","Hard",0,"correct",0.5281,0,209,11,1,"Late","10¢",20.2575342465753,20,"Adults",151
"210","Hard",1,"correct",0.531,0,210,11,1,"Late","10¢",20.2575342465753,20,"Adults",151
"211","Hard",0,"correct",0.5084,0,211,11,1,"Late","10¢",20.2575342465753,20,"Adults",151
"212","Hard",0,"correct",0.523,0,212,11,1,"Late","10¢",20.2575342465753,20,"Adults",151
"213","Hard",0,"correct",0.6215,0,213,11,1,"Late","10¢",20.2575342465753,20,"Adults",151
"214","Hard",1,"correct",0.7496,0,214,11,1,"Late","10¢",20.2575342465753,20,"Adults",151
"215","Hard",1,"correct",0.5418,0,215,11,1,"Late","10¢",20.2575342465753,20,"Adults",151
"216","Hard",0,"correct",0.6478,0,216,11,1,"Late","10¢",20.2575342465753,20,"Adults",151
"217","Hard",1,"correct",0.5878,0,217,11,1,"Late","10¢",20.2575342465753,20,"Adults",151
"218","Hard",0,"correct",0.5788,0,218,11,1,"Late","10¢",20.2575342465753,20,"Adults",151
"219","Hard",0,"correct",0.5003,0,219,11,1,"Late","10¢",20.2575342465753,20,"Adults",151
"220","Hard",1,"correct",0.544,0,220,11,1,"Late","10¢",20.2575342465753,20,"Adults",151
"221","Hard",0,"correct",0.7302,0,221,12,1,"Late","1¢",20.2575342465753,20,"Adults",151
"222","Hard",1,"correct",0.6726,0,222,12,1,"Late","1¢",20.2575342465753,20,"Adults",151
"223","Hard",0,"correct",0.6408,0,223,12,1,"Late","1¢",20.2575342465753,20,"Adults",151
"224","Hard",0,"correct",0.5783,0,224,12,1,"Late","1¢",20.2575342465753,20,"Adults",151
"225","Hard",0,"correct",0.6988,0,225,12,1,"Late","1¢",20.2575342465753,20,"Adults",151
"226","Hard",0,"correct",0.6214,0,226,12,1,"Late","1¢",20.2575342465753,20,"Adults",151
"227","Hard",0,"correct",0.6574,0,227,12,1,"Late","1¢",20.2575342465753,20,"Adults",151
"228","Hard",1,"correct",0.6063,0,228,12,1,"Late","1¢",20.2575342465753,20,"Adults",151
"229","Hard",1,"correct",0.7576,0,229,12,1,"Late","1¢",20.2575342465753,20,"Adults",151
"230","Hard",1,"correct",0.7101,0,230,12,1,"Late","1¢",20.2575342465753,20,"Adults",151
"231","Hard",0,"correct",1.0133,0,231,12,1,"Late","1¢",20.2575342465753,20,"Adults",151
"232","Hard",0,"correct",0.5258,0,232,12,1,"Late","1¢",20.2575342465753,20,"Adults",151
"233","Hard",1,"correct",0.6889,0,233,12,1,"Late","1¢",20.2575342465753,20,"Adults",151
"234","Hard",1,"correct",0.733,0,234,12,1,"Late","1¢",20.2575342465753,20,"Adults",151
"235","Hard",1,"correct",0.8562,0,235,12,1,"Late","1¢",20.2575342465753,20,"Adults",151
"236","Hard",1,"correct",0.5605,0,236,12,1,"Late","1¢",20.2575342465753,20,"Adults",151
"237","Hard",1,"correct",0.7587,0,237,12,1,"Late","1¢",20.2575342465753,20,"Adults",151
"238","Hard",0,"correct",0.543,0,238,12,1,"Late","1¢",20.2575342465753,20,"Adults",151
"239","Hard",0,"correct",0.7112,0,239,12,1,"Late","1¢",20.2575342465753,20,"Adults",151
"240","Hard",1,"correct",0.8796,0,240,12,1,"Late","1¢",20.2575342465753,20,"Adults",151
"241","Easy",0,"correct",0.9691,0,1,1,1,"Early","10¢",19.2082191780822,19,"Adults",152
"242","Easy",0,"correct",0.6757,0,2,1,1,"Early","10¢",19.2082191780822,19,"Adults",152
"243","Easy",0,"correct",0.9823,0,3,1,1,"Early","10¢",19.2082191780822,19,"Adults",152
"244","Easy",0,"correct",0.722,0,4,1,1,"Early","10¢",19.2082191780822,19,"Adults",152
"245","Easy",1,"correct",0.8421,0,5,1,1,"Early","10¢",19.2082191780822,19,"Adults",152
"246","Easy",1,"correct",0.7411,0,6,1,1,"Early","10¢",19.2082191780822,19,"Adults",152
"247","Easy",0,"correct",0.608,0,7,1,1,"Early","10¢",19.2082191780822,19,"Adults",152
"248","Easy",0,"correct",0.6581,0,8,1,1,"Early","10¢",19.2082191780822,19,"Adults",152
"249","Easy",0,"correct",0.5846,0,9,1,1,"Early","10¢",19.2082191780822,19,"Adults",152
"250","Easy",0,"correct",0.6803,0,10,1,1,"Early","10¢",19.2082191780822,19,"Adults",152
"251","Easy",0,"correct",0.6271,0,11,1,1,"Early","10¢",19.2082191780822,19,"Adults",152
"252","Easy",0,"correct",0.594,0,12,1,1,"Early","10¢",19.2082191780822,19,"Adults",152
"253","Easy",0,"correct",0.5085,0,13,1,1,"Early","10¢",19.2082191780822,19,"Adults",152
"254","Easy",1,"correct",1.1001,0,14,1,1,"Early","10¢",19.2082191780822,19,"Adults",152
"255","Easy",1,"correct",0.8427,0,15,1,1,"Early","10¢",19.2082191780822,19,"Adults",152
"256","Easy",0,"correct",0.5981,0,16,1,1,"Early","10¢",19.2082191780822,19,"Adults",152
"257","Easy",0,"correct",0.6381,0,17,1,1,"Early","10¢",19.2082191780822,19,"Adults",152
"258","Easy",0,"correct",0.5748,0,18,1,1,"Early","10¢",19.2082191780822,19,"Adults",152
"259","Easy",0,"correct",0.866,0,19,1,1,"Early","10¢",19.2082191780822,19,"Adults",152
"260","Easy",0,"correct",0.7268,0,20,1,1,"Early","10¢",19.2082191780822,19,"Adults",152
"261","Easy",0,"correct",0.8532,0,21,2,1,"Early","1¢",19.2082191780822,19,"Adults",152
"262","Easy",0,"correct",0.6303,0,22,2,1,"Early","1¢",19.2082191780822,19,"Adults",152
"263","Easy",1,"correct",0.9867,0,23,2,1,"Early","1¢",19.2082191780822,19,"Adults",152
"264","Easy",0,"correct",0.7166,0,24,2,1,"Early","1¢",19.2082191780822,19,"Adults",152
"265","Easy",1,"correct",0.6853,0,25,2,1,"Early","1¢",19.2082191780822,19,"Adults",152
"266","Easy",0,"correct",0.7284,0,26,2,1,"Early","1¢",19.2082191780822,19,"Adults",152
"267","Easy",0,"correct",0.6092,0,27,2,1,"Early","1¢",19.2082191780822,19,"Adults",152
"268","Easy",0,"correct",0.5497,0,28,2,1,"Early","1¢",19.2082191780822,19,"Adults",152
"269","Easy",0,"correct",0.5923,0,29,2,1,"Early","1¢",19.2082191780822,19,"Adults",152
"270","Easy",0,"correct",0.5654,0,30,2,1,"Early","1¢",19.2082191780822,19,"Adults",152
"271","Easy",0,"correct",0.5689,0,31,2,1,"Early","1¢",19.2082191780822,19,"Adults",152
"272","Easy",0,"correct",0.6098,0,32,2,1,"Early","1¢",19.2082191780822,19,"Adults",152
"273","Easy",1,"correct",1.0646,0,33,2,1,"Early","1¢",19.2082191780822,19,"Adults",152
"274","Easy",0,"correct",0.883,0,34,2,1,"Early","1¢",19.2082191780822,19,"Adults",152
"275","Easy",0,"correct",0.775,0,35,2,1,"Early","1¢",19.2082191780822,19,"Adults",152
"276","Easy",1,"correct",0.7739,0,36,2,1,"Early","1¢",19.2082191780822,19,"Adults",152
"277","Easy",0,"correct",0.5945,0,37,2,1,"Early","1¢",19.2082191780822,19,"Adults",152
"278","Easy",0,"correct",0.532,0,38,2,1,"Early","1¢",19.2082191780822,19,"Adults",152
"279","Easy",0,"correct",0.6601,0,39,2,1,"Early","1¢",19.2082191780822,19,"Adults",152
"280","Easy",0,"correct",0.7282,0,40,2,1,"Early","1¢",19.2082191780822,19,"Adults",152
"281","Hard",0,"correct",0.927,0,41,3,1,"Early","10¢",19.2082191780822,19,"Adults",152
"282","Hard",1,"correct",0.881,0,42,3,1,"Early","10¢",19.2082191780822,19,"Adults",152
"283","Hard",1,"correct",0.7948,0,43,3,1,"Early","10¢",19.2082191780822,19,"Adults",152
"284","Hard",0,"correct",0.5131,0,44,3,1,"Early","10¢",19.2082191780822,19,"Adults",152
"285","Hard",1,"correct",0.9094,0,45,3,1,"Early","10¢",19.2082191780822,19,"Adults",152
"286","Hard",0,"correct",0.8,0,46,3,1,"Early","10¢",19.2082191780822,19,"Adults",152
"287","Hard",1,"correct",0.7791,0,47,3,1,"Early","10¢",19.2082191780822,19,"Adults",152
"288","Hard",0,"correct",0.6095,0,48,3,1,"Early","10¢",19.2082191780822,19,"Adults",152
"289","Hard",0,"correct",0.7065,0,49,3,1,"Early","10¢",19.2082191780822,19,"Adults",152
"290","Hard",1,"correct",0.7036,0,50,3,1,"Early","10¢",19.2082191780822,19,"Adults",152
"291","Hard",1,"correct",0.8495,0,51,3,1,"Early","10¢",19.2082191780822,19,"Adults",152
"292","Hard",1,"correct",0.7235,0,52,3,1,"Early","10¢",19.2082191780822,19,"Adults",152
"293","Hard",0,"correct",0.8093,0,53,3,1,"Early","10¢",19.2082191780822,19,"Adults",152
"294","Hard",0,"correct",0.9179,0,54,3,1,"Early","10¢",19.2082191780822,19,"Adults",152
"295","Hard",1,"correct",0.6676,0,55,3,1,"Early","10¢",19.2082191780822,19,"Adults",152
"296","Hard",1,"correct",0.7872,0,56,3,1,"Early","10¢",19.2082191780822,19,"Adults",152
"297","Hard",1,"correct",0.6262,0,57,3,1,"Early","10¢",19.2082191780822,19,"Adults",152
"298","Hard",0,"correct",0.5808,0,58,3,1,"Early","10¢",19.2082191780822,19,"Adults",152
"299","Hard",0,"correct",0.6815,0,59,3,1,"Early","10¢",19.2082191780822,19,"Adults",152
"300","Hard",0,"correct",0.5805,0,60,3,1,"Early","10¢",19.2082191780822,19,"Adults",152
"301","Hard",0,"correct",0.798,0,61,4,1,"Early","1¢",19.2082191780822,19,"Adults",152
"302","Hard",0,"correct",0.5986,0,62,4,1,"Early","1¢",19.2082191780822,19,"Adults",152
"303","Hard",1,"correct",1.0437,0,63,4,1,"Early","1¢",19.2082191780822,19,"Adults",152
"304","Hard",0,"correct",0.8392,0,64,4,1,"Early","1¢",19.2082191780822,19,"Adults",152
"305","Hard",0,"correct",0.8101,0,65,4,1,"Early","1¢",19.2082191780822,19,"Adults",152
"306","Hard",0,"correct",0.6418,0,66,4,1,"Early","1¢",19.2082191780822,19,"Adults",152
"307","Hard",0,"correct",0.6207,0,67,4,1,"Early","1¢",19.2082191780822,19,"Adults",152
"308","Hard",1,"correct",0.5803,0,68,4,1,"Early","1¢",19.2082191780822,19,"Adults",152
"309","Hard",1,"correct",0.9599,0,69,4,1,"Early","1¢",19.2082191780822,19,"Adults",152
"310","Hard",1,"correct",0.6758,0,70,4,1,"Early","1¢",19.2082191780822,19,"Adults",152
"311","Hard",1,"correct",0.9083,0,71,4,1,"Early","1¢",19.2082191780822,19,"Adults",152
"312","Hard",1,"correct",0.9371,0,72,4,1,"Early","1¢",19.2082191780822,19,"Adults",152
"313","Hard",0,"correct",0.7078,0,73,4,1,"Early","1¢",19.2082191780822,19,"Adults",152
"314","Hard",1,"correct",0.7764,0,74,4,1,"Early","1¢",19.2082191780822,19,"Adults",152
"315","Hard",1,"correct",0.6122,0,75,4,1,"Early","1¢",19.2082191780822,19,"Adults",152
"316","Hard",0,"correct",0.6588,0,76,4,1,"Early","1¢",19.2082191780822,19,"Adults",152
"317","Hard",0,"correct",0.8156,0,77,4,1,"Early","1¢",19.2082191780822,19,"Adults",152
"318","Hard",1,"correct",1.0512,0,78,4,1,"Early","1¢",19.2082191780822,19,"Adults",152
"319","Hard",0,"correct",0.7468,0,79,4,1,"Early","1¢",19.2082191780822,19,"Adults",152
"320","Hard",1,"correct",0.6756,0,80,4,1,"Early","1¢",19.2082191780822,19,"Adults",152
"321","Easy",0,"correct",0.6761,0,81,5,1,"Middle","1¢",19.2082191780822,19,"Adults",152
"322","Easy",0,"correct",0.5158,0,82,5,1,"Middle","1¢",19.2082191780822,19,"Adults",152
"323","Easy",0,"correct",0.5347,0,83,5,1,"Middle","1¢",19.2082191780822,19,"Adults",152
"324","Easy",0,"correct",0.6421,0,84,5,1,"Middle","1¢",19.2082191780822,19,"Adults",152
"325","Easy",0,"correct",0.6505,0,85,5,1,"Middle","1¢",19.2082191780822,19,"Adults",152
"326","Easy",0,"correct",0.4815,0,86,5,1,"Middle","1¢",19.2082191780822,19,"Adults",152
"327","Easy",0,"correct",0.5467,0,87,5,1,"Middle","1¢",19.2082191780822,19,"Adults",152
"328","Easy",0,"correct",0.5331,0,88,5,1,"Middle","1¢",19.2082191780822,19,"Adults",152
"329","Easy",0,"correct",0.5368,0,89,5,1,"Middle","1¢",19.2082191780822,19,"Adults",152
"330","Easy",1,"too_slow",NA,1,90,5,NA,"Middle","1¢",19.2082191780822,19,"Adults",152
"331","Easy",1,"correct",0.7946,0,91,5,1,"Middle","1¢",19.2082191780822,19,"Adults",152
"332","Easy",0,"correct",0.5997,0,92,5,1,"Middle","1¢",19.2082191780822,19,"Adults",152
"333","Easy",0,"correct",0.6623,0,93,5,1,"Middle","1¢",19.2082191780822,19,"Adults",152
"334","Easy",0,"correct",0.5779,0,94,5,1,"Middle","1¢",19.2082191780822,19,"Adults",152
"335","Easy",0,"correct",0.6924,0,95,5,1,"Middle","1¢",19.2082191780822,19,"Adults",152
"336","Easy",0,"correct",0.5916,0,96,5,1,"Middle","1¢",19.2082191780822,19,"Adults",152
"337","Easy",1,"correct",0.8591,0,97,5,1,"Middle","1¢",19.2082191780822,19,"Adults",152
"338","Easy",1,"correct",0.6079,0,98,5,1,"Middle","1¢",19.2082191780822,19,"Adults",152
"339","Easy",0,"correct",0.558,0,99,5,1,"Middle","1¢",19.2082191780822,19,"Adults",152
"340","Easy",0,"correct",0.5603,0,100,5,1,"Middle","1¢",19.2082191780822,19,"Adults",152
"341","Easy",0,"correct",0.7304,0,101,6,1,"Middle","10¢",19.2082191780822,19,"Adults",152
"342","Easy",1,"correct",0.802,0,102,6,1,"Middle","10¢",19.2082191780822,19,"Adults",152
"343","Easy",0,"correct",0.6755,0,103,6,1,"Middle","10¢",19.2082191780822,19,"Adults",152
"344","Easy",1,"correct",0.6269,0,104,6,1,"Middle","10¢",19.2082191780822,19,"Adults",152
"345","Easy",0,"correct",0.5157,0,105,6,1,"Middle","10¢",19.2082191780822,19,"Adults",152
"346","Easy",0,"correct",0.5744,0,106,6,1,"Middle","10¢",19.2082191780822,19,"Adults",152
"347","Easy",0,"correct",0.6258,0,107,6,1,"Middle","10¢",19.2082191780822,19,"Adults",152
"348","Easy",0,"correct",0.5786,0,108,6,1,"Middle","10¢",19.2082191780822,19,"Adults",152
"349","Easy",0,"correct",0.4954,0,109,6,1,"Middle","10¢",19.2082191780822,19,"Adults",152
"350","Easy",1,"correct",0.8801,0,110,6,1,"Middle","10¢",19.2082191780822,19,"Adults",152
"351","Easy",1,"correct",0.5843,0,111,6,1,"Middle","10¢",19.2082191780822,19,"Adults",152
"352","Easy",0,"correct",0.4587,0,112,6,1,"Middle","10¢",19.2082191780822,19,"Adults",152
"353","Easy",0,"correct",0.4914,0,113,6,1,"Middle","10¢",19.2082191780822,19,"Adults",152
"354","Easy",0,"correct",0.4318,0,114,6,1,"Middle","10¢",19.2082191780822,19,"Adults",152
"355","Easy",0,"correct",0.6097,0,115,6,1,"Middle","10¢",19.2082191780822,19,"Adults",152
"356","Easy",0,"correct",0.4445,0,116,6,1,"Middle","10¢",19.2082191780822,19,"Adults",152
"357","Easy",0,"correct",0.5436,0,117,6,1,"Middle","10¢",19.2082191780822,19,"Adults",152
"358","Easy",0,"correct",0.5697,0,118,6,1,"Middle","10¢",19.2082191780822,19,"Adults",152
"359","Easy",0,"correct",0.4989,0,119,6,1,"Middle","10¢",19.2082191780822,19,"Adults",152
"360","Easy",0,"correct",0.498,0,120,6,1,"Middle","10¢",19.2082191780822,19,"Adults",152
"361","Hard",0,"correct",0.8497,0,121,7,1,"Middle","1¢",19.2082191780822,19,"Adults",152
"362","Hard",0,"correct",0.5011,0,122,7,1,"Middle","1¢",19.2082191780822,19,"Adults",152
"363","Hard",0,"correct",0.6452,0,123,7,1,"Middle","1¢",19.2082191780822,19,"Adults",152
"364","Hard",0,"correct",0.5877,0,124,7,1,"Middle","1¢",19.2082191780822,19,"Adults",152
"365","Hard",1,"correct",0.7936,0,125,7,1,"Middle","1¢",19.2082191780822,19,"Adults",152
"366","Hard",1,"correct",0.5769,0,126,7,1,"Middle","1¢",19.2082191780822,19,"Adults",152
"367","Hard",0,"correct",0.5331,0,127,7,1,"Middle","1¢",19.2082191780822,19,"Adults",152
"368","Hard",1,"correct",1.0351,0,128,7,1,"Middle","1¢",19.2082191780822,19,"Adults",152
"369","Hard",1,"correct",0.6607,0,129,7,1,"Middle","1¢",19.2082191780822,19,"Adults",152
"370","Hard",1,"correct",0.9988,0,130,7,1,"Middle","1¢",19.2082191780822,19,"Adults",152
"371","Hard",0,"correct",0.9142,0,131,7,1,"Middle","1¢",19.2082191780822,19,"Adults",152
"372","Hard",1,"correct",0.9668,0,132,7,1,"Middle","1¢",19.2082191780822,19,"Adults",152
"373","Hard",1,"correct",0.9935,0,133,7,1,"Middle","1¢",19.2082191780822,19,"Adults",152
"374","Hard",0,"correct",0.9599,0,134,7,1,"Middle","1¢",19.2082191780822,19,"Adults",152
"375","Hard",0,"correct",0.681,0,135,7,1,"Middle","1¢",19.2082191780822,19,"Adults",152
"376","Hard",1,"correct",0.6825,0,136,7,1,"Middle","1¢",19.2082191780822,19,"Adults",152
"377","Hard",0,"correct",0.6818,0,137,7,1,"Middle","1¢",19.2082191780822,19,"Adults",152
"378","Hard",0,"correct",0.6931,0,138,7,1,"Middle","1¢",19.2082191780822,19,"Adults",152
"379","Hard",1,"correct",0.7452,0,139,7,1,"Middle","1¢",19.2082191780822,19,"Adults",152
"380","Hard",1,"correct",0.5992,0,140,7,1,"Middle","1¢",19.2082191780822,19,"Adults",152
"381","Hard",0,"correct",0.7889,0,141,8,1,"Middle","10¢",19.2082191780822,19,"Adults",152
"382","Hard",1,"correct",0.8771,0,142,8,1,"Middle","10¢",19.2082191780822,19,"Adults",152
"383","Hard",0,"correct",0.916,0,143,8,1,"Middle","10¢",19.2082191780822,19,"Adults",152
"384","Hard",0,"correct",0.5432,0,144,8,1,"Middle","10¢",19.2082191780822,19,"Adults",152
"385","Hard",1,"correct",0.8733,0,145,8,1,"Middle","10¢",19.2082191780822,19,"Adults",152
"386","Hard",1,"correct",0.7927,0,146,8,1,"Middle","10¢",19.2082191780822,19,"Adults",152
"387","Hard",0,"correct",0.7097,0,147,8,1,"Middle","10¢",19.2082191780822,19,"Adults",152
"388","Hard",0,"correct",0.883,0,148,8,1,"Middle","10¢",19.2082191780822,19,"Adults",152
"389","Hard",1,"correct",0.6442,0,149,8,1,"Middle","10¢",19.2082191780822,19,"Adults",152
"390","Hard",1,"correct",0.6767,0,150,8,1,"Middle","10¢",19.2082191780822,19,"Adults",152
"391","Hard",1,"correct",0.6975,0,151,8,1,"Middle","10¢",19.2082191780822,19,"Adults",152
"392","Hard",1,"correct",0.7606,0,152,8,1,"Middle","10¢",19.2082191780822,19,"Adults",152
"393","Hard",0,"correct",0.6983,0,153,8,1,"Middle","10¢",19.2082191780822,19,"Adults",152
"394","Hard",0,"correct",0.8166,0,154,8,1,"Middle","10¢",19.2082191780822,19,"Adults",152
"395","Hard",1,"correct",0.71,0,155,8,1,"Middle","10¢",19.2082191780822,19,"Adults",152
"396","Hard",1,"correct",0.6795,0,156,8,1,"Middle","10¢",19.2082191780822,19,"Adults",152
"397","Hard",0,"correct",0.6916,0,157,8,1,"Middle","10¢",19.2082191780822,19,"Adults",152
"398","Hard",1,"correct",0.6444,0,158,8,1,"Middle","10¢",19.2082191780822,19,"Adults",152
"399","Hard",0,"correct",0.5612,0,159,8,1,"Middle","10¢",19.2082191780822,19,"Adults",152
"400","Hard",0,"correct",0.5878,0,160,8,1,"Middle","10¢",19.2082191780822,19,"Adults",152
"401","Easy",0,"correct",1.0127,0,161,9,1,"Late","10¢",19.2082191780822,19,"Adults",152
"402","Easy",0,"correct",0.532,0,162,9,1,"Late","10¢",19.2082191780822,19,"Adults",152
"403","Easy",0,"correct",0.6451,0,163,9,1,"Late","10¢",19.2082191780822,19,"Adults",152
"404","Easy",0,"correct",0.4765,0,164,9,1,"Late","10¢",19.2082191780822,19,"Adults",152
"405","Easy",0,"correct",0.4758,0,165,9,1,"Late","10¢",19.2082191780822,19,"Adults",152
"406","Easy",0,"correct",0.6098,0,166,9,1,"Late","10¢",19.2082191780822,19,"Adults",152
"407","Easy",1,"too_slow",NA,1,167,9,NA,"Late","10¢",19.2082191780822,19,"Adults",152
"408","Easy",0,"correct",0.7945,0,168,9,1,"Late","10¢",19.2082191780822,19,"Adults",152
"409","Easy",0,"correct",0.6878,0,169,9,1,"Late","10¢",19.2082191780822,19,"Adults",152
"410","Easy",0,"correct",0.703,0,170,9,1,"Late","10¢",19.2082191780822,19,"Adults",152
"411","Easy",0,"correct",0.6504,0,171,9,1,"Late","10¢",19.2082191780822,19,"Adults",152
"412","Easy",1,"correct",0.6763,0,172,9,1,"Late","10¢",19.2082191780822,19,"Adults",152
"413","Easy",0,"correct",0.668,0,173,9,1,"Late","10¢",19.2082191780822,19,"Adults",152
"414","Easy",1,"correct",0.6495,0,174,9,1,"Late","10¢",19.2082191780822,19,"Adults",152
"415","Easy",0,"correct",1.083,0,175,9,1,"Late","10¢",19.2082191780822,19,"Adults",152
"416","Easy",1,"correct",0.6107,0,176,9,1,"Late","10¢",19.2082191780822,19,"Adults",152
"417","Easy",0,"correct",0.6479,0,177,9,1,"Late","10¢",19.2082191780822,19,"Adults",152
"418","Easy",0,"correct",0.5182,0,178,9,1,"Late","10¢",19.2082191780822,19,"Adults",152
"419","Easy",0,"correct",0.5461,0,179,9,1,"Late","10¢",19.2082191780822,19,"Adults",152
"420","Easy",0,"correct",0.6045,0,180,9,1,"Late","10¢",19.2082191780822,19,"Adults",152
"421","Easy",0,"correct",0.7852,0,181,10,1,"Late","1¢",19.2082191780822,19,"Adults",152
"422","Easy",0,"correct",0.5808,0,182,10,1,"Late","1¢",19.2082191780822,19,"Adults",152
"423","Easy",0,"correct",0.5175,0,183,10,1,"Late","1¢",19.2082191780822,19,"Adults",152
"424","Easy",0,"correct",0.4975,0,184,10,1,"Late","1¢",19.2082191780822,19,"Adults",152
"425","Easy",1,"correct",1.0124,0,185,10,1,"Late","1¢",19.2082191780822,19,"Adults",152
"426","Easy",1,"correct",0.5769,0,186,10,1,"Late","1¢",19.2082191780822,19,"Adults",152
"427","Easy",0,"correct",0.5455,0,187,10,1,"Late","1¢",19.2082191780822,19,"Adults",152
"428","Easy",0,"correct",0.6286,0,188,10,1,"Late","1¢",19.2082191780822,19,"Adults",152
"429","Easy",0,"correct",0.4838,0,189,10,1,"Late","1¢",19.2082191780822,19,"Adults",152
"430","Easy",0,"correct",0.6363,0,190,10,1,"Late","1¢",19.2082191780822,19,"Adults",152
"431","Easy",0,"correct",0.65,0,191,10,1,"Late","1¢",19.2082191780822,19,"Adults",152
"432","Easy",0,"correct",0.5487,0,192,10,1,"Late","1¢",19.2082191780822,19,"Adults",152
"433","Easy",0,"correct",0.5657,0,193,10,1,"Late","1¢",19.2082191780822,19,"Adults",152
"434","Easy",0,"correct",0.5767,0,194,10,1,"Late","1¢",19.2082191780822,19,"Adults",152
"435","Easy",1,"correct",1.0425,0,195,10,1,"Late","1¢",19.2082191780822,19,"Adults",152
"436","Easy",0,"correct",0.9081,0,196,10,1,"Late","1¢",19.2082191780822,19,"Adults",152
"437","Easy",1,"correct",0.6418,0,197,10,1,"Late","1¢",19.2082191780822,19,"Adults",152
"438","Easy",0,"correct",0.5909,0,198,10,1,"Late","1¢",19.2082191780822,19,"Adults",152
"439","Easy",0,"correct",0.7097,0,199,10,1,"Late","1¢",19.2082191780822,19,"Adults",152
"440","Easy",0,"correct",0.7089,0,200,10,1,"Late","1¢",19.2082191780822,19,"Adults",152
"441","Hard",0,"correct",0.7873,0,201,11,1,"Late","10¢",19.2082191780822,19,"Adults",152
"442","Hard",1,"correct",0.7575,0,202,11,1,"Late","10¢",19.2082191780822,19,"Adults",152
"443","Hard",0,"correct",0.9021,0,203,11,1,"Late","10¢",19.2082191780822,19,"Adults",152
"444","Hard",0,"correct",0.6563,0,204,11,1,"Late","10¢",19.2082191780822,19,"Adults",152
"445","Hard",1,"correct",0.594,0,205,11,1,"Late","10¢",19.2082191780822,19,"Adults",152
"446","Hard",1,"correct",0.9248,0,206,11,1,"Late","10¢",19.2082191780822,19,"Adults",152
"447","Hard",0,"correct",0.6438,0,207,11,1,"Late","10¢",19.2082191780822,19,"Adults",152
"448","Hard",1,"correct",0.5272,0,208,11,1,"Late","10¢",19.2082191780822,19,"Adults",152
"449","Hard",0,"correct",0.6009,0,209,11,1,"Late","10¢",19.2082191780822,19,"Adults",152
"450","Hard",0,"correct",0.5164,0,210,11,1,"Late","10¢",19.2082191780822,19,"Adults",152
"451","Hard",1,"correct",0.8757,0,211,11,1,"Late","10¢",19.2082191780822,19,"Adults",152
"452","Hard",1,"correct",0.7823,0,212,11,1,"Late","10¢",19.2082191780822,19,"Adults",152
"453","Hard",0,"correct",0.6322,0,213,11,1,"Late","10¢",19.2082191780822,19,"Adults",152
"454","Hard",1,"correct",0.7435,0,214,11,1,"Late","10¢",19.2082191780822,19,"Adults",152
"455","Hard",0,"correct",0.7689,0,215,11,1,"Late","10¢",19.2082191780822,19,"Adults",152
"456","Hard",0,"correct",1.0964,0,216,11,1,"Late","10¢",19.2082191780822,19,"Adults",152
"457","Hard",1,"correct",0.5535,0,217,11,1,"Late","10¢",19.2082191780822,19,"Adults",152
"458","Hard",1,"correct",0.9025,0,218,11,1,"Late","10¢",19.2082191780822,19,"Adults",152
"459","Hard",0,"correct",0.9812,0,219,11,1,"Late","10¢",19.2082191780822,19,"Adults",152
"460","Hard",1,"correct",0.8935,0,220,11,1,"Late","10¢",19.2082191780822,19,"Adults",152
"461","Hard",0,"correct",0.7151,0,221,12,1,"Late","1¢",19.2082191780822,19,"Adults",152
"462","Hard",0,"correct",0.577,0,222,12,1,"Late","1¢",19.2082191780822,19,"Adults",152
"463","Hard",1,"correct",0.9604,0,223,12,1,"Late","1¢",19.2082191780822,19,"Adults",152
"464","Hard",1,"correct",0.6112,0,224,12,1,"Late","1¢",19.2082191780822,19,"Adults",152
"465","Hard",1,"correct",0.952,0,225,12,1,"Late","1¢",19.2082191780822,19,"Adults",152
"466","Hard",0,"correct",1.1879,0,226,12,1,"Late","1¢",19.2082191780822,19,"Adults",152
"467","Hard",0,"correct",0.7931,0,227,12,1,"Late","1¢",19.2082191780822,19,"Adults",152
"468","Hard",0,"correct",0.7774,0,228,12,1,"Late","1¢",19.2082191780822,19,"Adults",152
"469","Hard",1,"correct",0.6366,0,229,12,1,"Late","1¢",19.2082191780822,19,"Adults",152
"470","Hard",1,"correct",0.7626,0,230,12,1,"Late","1¢",19.2082191780822,19,"Adults",152
"471","Hard",1,"correct",0.6418,0,231,12,1,"Late","1¢",19.2082191780822,19,"Adults",152
"472","Hard",0,"correct",0.5771,0,232,12,1,"Late","1¢",19.2082191780822,19,"Adults",152
"473","Hard",0,"correct",0.5795,0,233,12,1,"Late","1¢",19.2082191780822,19,"Adults",152
"474","Hard",0,"correct",0.5188,0,234,12,1,"Late","1¢",19.2082191780822,19,"Adults",152
"475","Hard",1,"correct",0.908,0,235,12,1,"Late","1¢",19.2082191780822,19,"Adults",152
"476","Hard",1,"correct",0.6106,0,236,12,1,"Late","1¢",19.2082191780822,19,"Adults",152
"477","Hard",0,"correct",0.5682,0,237,12,1,"Late","1¢",19.2082191780822,19,"Adults",152
"478","Hard",1,"correct",0.8103,0,238,12,1,"Late","1¢",19.2082191780822,19,"Adults",152
"479","Hard",0,"too_slow",NA,1,239,12,NA,"Late","1¢",19.2082191780822,19,"Adults",152
"480","Hard",1,"correct",1.0838,0,240,12,1,"Late","1¢",19.2082191780822,19,"Adults",152
"481","Easy",0,"correct",0.7488,0,1,1,1,"Early","10¢",18.1369863013699,18,"Adults",153
"482","Easy",0,"correct",0.5484,0,2,1,1,"Early","10¢",18.1369863013699,18,"Adults",153
"483","Easy",0,"correct",0.5812,0,3,1,1,"Early","10¢",18.1369863013699,18,"Adults",153
"484","Easy",0,"correct",0.5324,0,4,1,1,"Early","10¢",18.1369863013699,18,"Adults",153
"485","Easy",1,"correct",0.8967,0,5,1,1,"Early","10¢",18.1369863013699,18,"Adults",153
"486","Easy",0,"correct",0.5953,0,6,1,1,"Early","10¢",18.1369863013699,18,"Adults",153
"487","Easy",1,"correct",0.5185,0,7,1,1,"Early","10¢",18.1369863013699,18,"Adults",153
"488","Easy",0,"correct",0.4684,0,8,1,1,"Early","10¢",18.1369863013699,18,"Adults",153
"489","Easy",1,"correct",0.9373,0,9,1,1,"Early","10¢",18.1369863013699,18,"Adults",153
"490","Easy",0,"correct",0.935,0,10,1,1,"Early","10¢",18.1369863013699,18,"Adults",153
"491","Easy",0,"too_slow",NA,1,11,1,NA,"Early","10¢",18.1369863013699,18,"Adults",153
"492","Easy",0,"correct",0.6714,0,12,1,1,"Early","10¢",18.1369863013699,18,"Adults",153
"493","Easy",0,"correct",0.6513,0,13,1,1,"Early","10¢",18.1369863013699,18,"Adults",153
"494","Easy",0,"correct",0.6008,0,14,1,1,"Early","10¢",18.1369863013699,18,"Adults",153
"495","Easy",0,"correct",0.6026,0,15,1,1,"Early","10¢",18.1369863013699,18,"Adults",153
"496","Easy",0,"correct",0.6369,0,16,1,1,"Early","10¢",18.1369863013699,18,"Adults",153
"497","Easy",1,"correct",0.771,0,17,1,1,"Early","10¢",18.1369863013699,18,"Adults",153
"498","Easy",0,"correct",0.7509,0,18,1,1,"Early","10¢",18.1369863013699,18,"Adults",153
"499","Easy",0,"correct",0.5507,0,19,1,1,"Early","10¢",18.1369863013699,18,"Adults",153
"500","Easy",0,"correct",0.5674,0,20,1,1,"Early","10¢",18.1369863013699,18,"Adults",153
"501","Easy",0,"correct",0.7078,0,21,2,1,"Early","1¢",18.1369863013699,18,"Adults",153
"502","Easy",0,"correct",0.601,0,22,2,1,"Early","1¢",18.1369863013699,18,"Adults",153
"503","Easy",0,"correct",0.7229,0,23,2,1,"Early","1¢",18.1369863013699,18,"Adults",153
"504","Easy",0,"correct",0.755,0,24,2,1,"Early","1¢",18.1369863013699,18,"Adults",153
"505","Easy",0,"correct",0.5576,0,25,2,1,"Early","1¢",18.1369863013699,18,"Adults",153
"506","Easy",0,"correct",0.5725,0,26,2,1,"Early","1¢",18.1369863013699,18,"Adults",153
"507","Easy",0,"correct",0.538,0,27,2,1,"Early","1¢",18.1369863013699,18,"Adults",153
"508","Easy",0,"correct",0.5043,0,28,2,1,"Early","1¢",18.1369863013699,18,"Adults",153
"509","Easy",0,"correct",0.5223,0,29,2,1,"Early","1¢",18.1369863013699,18,"Adults",153
"510","Easy",0,"correct",0.5822,0,30,2,1,"Early","1¢",18.1369863013699,18,"Adults",153
"511","Easy",1,"correct",0.744,0,31,2,1,"Early","1¢",18.1369863013699,18,"Adults",153
"512","Easy",1,"correct",0.6187,0,32,2,1,"Early","1¢",18.1369863013699,18,"Adults",153
"513","Easy",0,"correct",0.5172,0,33,2,1,"Early","1¢",18.1369863013699,18,"Adults",153
"514","Easy",1,"correct",1.0158,0,34,2,1,"Early","1¢",18.1369863013699,18,"Adults",153
"515","Easy",0,"too_slow",NA,1,35,2,NA,"Early","1¢",18.1369863013699,18,"Adults",153
"516","Easy",0,"correct",1.1508,0,36,2,1,"Early","1¢",18.1369863013699,18,"Adults",153
"517","Easy",1,"correct",0.5417,0,37,2,1,"Early","1¢",18.1369863013699,18,"Adults",153
"518","Easy",0,"correct",0.5332,0,38,2,1,"Early","1¢",18.1369863013699,18,"Adults",153
"519","Easy",0,"correct",0.6875,0,39,2,1,"Early","1¢",18.1369863013699,18,"Adults",153
"520","Easy",0,"correct",0.7858,0,40,2,1,"Early","1¢",18.1369863013699,18,"Adults",153
"521","Hard",0,"correct",0.6228,0,41,3,1,"Early","10¢",18.1369863013699,18,"Adults",153
"522","Hard",1,"correct",0.8366,0,42,3,1,"Early","10¢",18.1369863013699,18,"Adults",153
"523","Hard",0,"correct",0.6715,0,43,3,1,"Early","10¢",18.1369863013699,18,"Adults",153
"524","Hard",0,"correct",0.9408,0,44,3,1,"Early","10¢",18.1369863013699,18,"Adults",153
"525","Hard",1,"correct",0.605,0,45,3,1,"Early","10¢",18.1369863013699,18,"Adults",153
"526","Hard",1,"correct",0.7411,0,46,3,1,"Early","10¢",18.1369863013699,18,"Adults",153
"527","Hard",0,"correct",0.787,0,47,3,1,"Early","10¢",18.1369863013699,18,"Adults",153
"528","Hard",0,"correct",0.6088,0,48,3,1,"Early","10¢",18.1369863013699,18,"Adults",153
"529","Hard",1,"correct",0.5228,0,49,3,1,"Early","10¢",18.1369863013699,18,"Adults",153
"530","Hard",1,"correct",0.6885,0,50,3,1,"Early","10¢",18.1369863013699,18,"Adults",153
"531","Hard",1,"correct",0.7378,0,51,3,1,"Early","10¢",18.1369863013699,18,"Adults",153
"532","Hard",0,"correct",0.5044,0,52,3,1,"Early","10¢",18.1369863013699,18,"Adults",153
"533","Hard",1,"correct",0.7087,0,53,3,1,"Early","10¢",18.1369863013699,18,"Adults",153
"534","Hard",1,"correct",0.5862,0,54,3,1,"Early","10¢",18.1369863013699,18,"Adults",153
"535","Hard",0,"correct",0.4721,0,55,3,1,"Early","10¢",18.1369863013699,18,"Adults",153
"536","Hard",1,"correct",0.7563,0,56,3,1,"Early","10¢",18.1369863013699,18,"Adults",153
"537","Hard",0,"correct",1.1081,0,57,3,1,"Early","10¢",18.1369863013699,18,"Adults",153
"538","Hard",1,"correct",0.739,0,58,3,1,"Early","10¢",18.1369863013699,18,"Adults",153
"539","Hard",0,"correct",0.5553,0,59,3,1,"Early","10¢",18.1369863013699,18,"Adults",153
"540","Hard",0,"correct",0.5212,0,60,3,1,"Early","10¢",18.1369863013699,18,"Adults",153
"541","Hard",0,"correct",0.691,0,61,4,1,"Early","1¢",18.1369863013699,18,"Adults",153
"542","Hard",0,"correct",0.4847,0,62,4,1,"Early","1¢",18.1369863013699,18,"Adults",153
"543","Hard",1,"correct",0.7516,0,63,4,1,"Early","1¢",18.1369863013699,18,"Adults",153
"544","Hard",0,"correct",0.5724,0,64,4,1,"Early","1¢",18.1369863013699,18,"Adults",153
"545","Hard",0,"correct",0.6596,0,65,4,1,"Early","1¢",18.1369863013699,18,"Adults",153
"546","Hard",1,"correct",0.7568,0,66,4,1,"Early","1¢",18.1369863013699,18,"Adults",153
"547","Hard",0,"correct",0.5017,0,67,4,1,"Early","1¢",18.1369863013699,18,"Adults",153
"548","Hard",1,"correct",0.8585,0,68,4,1,"Early","1¢",18.1369863013699,18,"Adults",153
"549","Hard",1,"correct",0.5742,0,69,4,1,"Early","1¢",18.1369863013699,18,"Adults",153
"550","Hard",1,"correct",0.672,0,70,4,1,"Early","1¢",18.1369863013699,18,"Adults",153
"551","Hard",0,"correct",0.7349,0,71,4,1,"Early","1¢",18.1369863013699,18,"Adults",153
"552","Hard",1,"correct",0.6388,0,72,4,1,"Early","1¢",18.1369863013699,18,"Adults",153
"553","Hard",0,"correct",0.608,0,73,4,1,"Early","1¢",18.1369863013699,18,"Adults",153
"554","Hard",1,"correct",1.1651,0,74,4,1,"Early","1¢",18.1369863013699,18,"Adults",153
"555","Hard",1,"correct",0.5218,0,75,4,1,"Early","1¢",18.1369863013699,18,"Adults",153
"556","Hard",0,"correct",0.5017,0,76,4,1,"Early","1¢",18.1369863013699,18,"Adults",153
"557","Hard",1,"correct",0.7532,0,77,4,1,"Early","1¢",18.1369863013699,18,"Adults",153
"558","Hard",0,"correct",0.6061,0,78,4,1,"Early","1¢",18.1369863013699,18,"Adults",153
"559","Hard",1,"correct",0.558,0,79,4,1,"Early","1¢",18.1369863013699,18,"Adults",153
"560","Hard",0,"correct",0.5259,0,80,4,1,"Early","1¢",18.1369863013699,18,"Adults",153
"561","Easy",0,"correct",0.7512,0,81,5,1,"Middle","1¢",18.1369863013699,18,"Adults",153
"562","Easy",1,"correct",0.7854,0,82,5,1,"Middle","1¢",18.1369863013699,18,"Adults",153
"563","Easy",0,"correct",0.8547,0,83,5,1,"Middle","1¢",18.1369863013699,18,"Adults",153
"564","Easy",0,"correct",0.6052,0,84,5,1,"Middle","1¢",18.1369863013699,18,"Adults",153
"565","Easy",0,"correct",0.5903,0,85,5,1,"Middle","1¢",18.1369863013699,18,"Adults",153
"566","Easy",0,"correct",0.6014,0,86,5,1,"Middle","1¢",18.1369863013699,18,"Adults",153
"567","Easy",1,"correct",0.7184,0,87,5,1,"Middle","1¢",18.1369863013699,18,"Adults",153
"568","Easy",0,"correct",0.5342,0,88,5,1,"Middle","1¢",18.1369863013699,18,"Adults",153
"569","Easy",1,"correct",0.6537,0,89,5,1,"Middle","1¢",18.1369863013699,18,"Adults",153
"570","Easy",0,"correct",0.7558,0,90,5,1,"Middle","1¢",18.1369863013699,18,"Adults",153
"571","Easy",0,"correct",0.6572,0,91,5,1,"Middle","1¢",18.1369863013699,18,"Adults",153
"572","Easy",0,"correct",0.6521,0,92,5,1,"Middle","1¢",18.1369863013699,18,"Adults",153
"573","Easy",0,"correct",0.6371,0,93,5,1,"Middle","1¢",18.1369863013699,18,"Adults",153
"574","Easy",0,"correct",0.7884,0,94,5,1,"Middle","1¢",18.1369863013699,18,"Adults",153
"575","Easy",0,"correct",0.6017,0,95,5,1,"Middle","1¢",18.1369863013699,18,"Adults",153
"576","Easy",0,"correct",0.6002,0,96,5,1,"Middle","1¢",18.1369863013699,18,"Adults",153
"577","Easy",0,"correct",0.9395,0,97,5,1,"Middle","1¢",18.1369863013699,18,"Adults",153
"578","Easy",0,"correct",0.7386,0,98,5,1,"Middle","1¢",18.1369863013699,18,"Adults",153
"579","Easy",0,"correct",0.5731,0,99,5,1,"Middle","1¢",18.1369863013699,18,"Adults",153
"580","Easy",1,"correct",0.5742,0,100,5,1,"Middle","1¢",18.1369863013699,18,"Adults",153
"581","Easy",0,"correct",0.7,0,101,6,1,"Middle","10¢",18.1369863013699,18,"Adults",153
"582","Easy",0,"correct",0.6871,0,102,6,1,"Middle","10¢",18.1369863013699,18,"Adults",153
"583","Easy",0,"correct",0.5582,0,103,6,1,"Middle","10¢",18.1369863013699,18,"Adults",153
"584","Easy",0,"correct",0.5525,0,104,6,1,"Middle","10¢",18.1369863013699,18,"Adults",153
"585","Easy",1,"correct",0.84,0,105,6,1,"Middle","10¢",18.1369863013699,18,"Adults",153
"586","Easy",0,"correct",0.6259,0,106,6,1,"Middle","10¢",18.1369863013699,18,"Adults",153
"587","Easy",0,"correct",0.5874,0,107,6,1,"Middle","10¢",18.1369863013699,18,"Adults",153
"588","Easy",0,"correct",0.5897,0,108,6,1,"Middle","10¢",18.1369863013699,18,"Adults",153
"589","Easy",0,"correct",0.5531,0,109,6,1,"Middle","10¢",18.1369863013699,18,"Adults",153
"590","Easy",0,"correct",0.753,0,110,6,1,"Middle","10¢",18.1369863013699,18,"Adults",153
"591","Easy",1,"correct",0.6754,0,111,6,1,"Middle","10¢",18.1369863013699,18,"Adults",153
"592","Easy",0,"correct",0.5067,0,112,6,1,"Middle","10¢",18.1369863013699,18,"Adults",153
"593","Easy",0,"correct",0.5198,0,113,6,1,"Middle","10¢",18.1369863013699,18,"Adults",153
"594","Easy",0,"correct",0.5014,0,114,6,1,"Middle","10¢",18.1369863013699,18,"Adults",153
"595","Easy",1,"correct",0.7348,0,115,6,1,"Middle","10¢",18.1369863013699,18,"Adults",153
"596","Easy",1,"correct",0.6363,0,116,6,1,"Middle","10¢",18.1369863013699,18,"Adults",153
"597","Easy",0,"correct",0.508,0,117,6,1,"Middle","10¢",18.1369863013699,18,"Adults",153
"598","Easy",0,"correct",0.5454,0,118,6,1,"Middle","10¢",18.1369863013699,18,"Adults",153
"599","Easy",0,"correct",0.7382,0,119,6,1,"Middle","10¢",18.1369863013699,18,"Adults",153
"600","Easy",0,"correct",0.5536,0,120,6,1,"Middle","10¢",18.1369863013699,18,"Adults",153
"601","Hard",0,"correct",0.7395,0,121,7,1,"Middle","1¢",18.1369863013699,18,"Adults",153
"602","Hard",1,"correct",0.705,0,122,7,1,"Middle","1¢",18.1369863013699,18,"Adults",153
"603","Hard",0,"correct",0.7053,0,123,7,1,"Middle","1¢",18.1369863013699,18,"Adults",153
"604","Hard",1,"correct",0.5719,0,124,7,1,"Middle","1¢",18.1369863013699,18,"Adults",153
"605","Hard",0,"correct",1.1902,0,125,7,1,"Middle","1¢",18.1369863013699,18,"Adults",153
"606","Hard",0,"correct",0.5077,0,126,7,1,"Middle","1¢",18.1369863013699,18,"Adults",153
"607","Hard",1,"correct",0.9232,0,127,7,1,"Middle","1¢",18.1369863013699,18,"Adults",153
"608","Hard",1,"correct",0.5766,0,128,7,1,"Middle","1¢",18.1369863013699,18,"Adults",153
"609","Hard",1,"correct",0.5714,0,129,7,1,"Middle","1¢",18.1369863013699,18,"Adults",153
"610","Hard",1,"correct",0.5227,0,130,7,1,"Middle","1¢",18.1369863013699,18,"Adults",153
"611","Hard",0,"correct",0.6175,0,131,7,1,"Middle","1¢",18.1369863013699,18,"Adults",153
"612","Hard",0,"correct",0.5394,0,132,7,1,"Middle","1¢",18.1369863013699,18,"Adults",153
"613","Hard",1,"correct",0.6716,0,133,7,1,"Middle","1¢",18.1369863013699,18,"Adults",153
"614","Hard",0,"correct",0.617,0,134,7,1,"Middle","1¢",18.1369863013699,18,"Adults",153
"615","Hard",0,"correct",1.1357,0,135,7,1,"Middle","1¢",18.1369863013699,18,"Adults",153
"616","Hard",1,"correct",0.5567,0,136,7,1,"Middle","1¢",18.1369863013699,18,"Adults",153
"617","Hard",0,"correct",0.604,0,137,7,1,"Middle","1¢",18.1369863013699,18,"Adults",153
"618","Hard",1,"correct",0.6711,0,138,7,1,"Middle","1¢",18.1369863013699,18,"Adults",153
"619","Hard",0,"correct",0.6877,0,139,7,1,"Middle","1¢",18.1369863013699,18,"Adults",153
"620","Hard",1,"correct",0.576,0,140,7,1,"Middle","1¢",18.1369863013699,18,"Adults",153
"621","Hard",0,"correct",0.5898,0,141,8,1,"Middle","10¢",18.1369863013699,18,"Adults",153
"622","Hard",0,"correct",0.5225,0,142,8,1,"Middle","10¢",18.1369863013699,18,"Adults",153
"623","Hard",1,"correct",0.6423,0,143,8,1,"Middle","10¢",18.1369863013699,18,"Adults",153
"624","Hard",0,"correct",0.5348,0,144,8,1,"Middle","10¢",18.1369863013699,18,"Adults",153
"625","Hard",0,"correct",0.635,0,145,8,1,"Middle","10¢",18.1369863013699,18,"Adults",153
"626","Hard",0,"correct",0.5669,0,146,8,1,"Middle","10¢",18.1369863013699,18,"Adults",153
"627","Hard",1,"correct",0.9056,0,147,8,1,"Middle","10¢",18.1369863013699,18,"Adults",153
"628","Hard",1,"too_slow",NA,1,148,8,NA,"Middle","10¢",18.1369863013699,18,"Adults",153
"629","Hard",0,"correct",0.6586,0,149,8,1,"Middle","10¢",18.1369863013699,18,"Adults",153
"630","Hard",1,"correct",0.574,0,150,8,1,"Middle","10¢",18.1369863013699,18,"Adults",153
"631","Hard",0,"correct",0.5597,0,151,8,1,"Middle","10¢",18.1369863013699,18,"Adults",153
"632","Hard",1,"correct",0.674,0,152,8,1,"Middle","10¢",18.1369863013699,18,"Adults",153
"633","Hard",1,"correct",0.6407,0,153,8,1,"Middle","10¢",18.1369863013699,18,"Adults",153
"634","Hard",0,"correct",0.8085,0,154,8,1,"Middle","10¢",18.1369863013699,18,"Adults",153
"635","Hard",0,"correct",0.5268,0,155,8,1,"Middle","10¢",18.1369863013699,18,"Adults",153
"636","Hard",1,"correct",0.6385,0,156,8,1,"Middle","10¢",18.1369863013699,18,"Adults",153
"637","Hard",1,"correct",0.5374,0,157,8,1,"Middle","10¢",18.1369863013699,18,"Adults",153
"638","Hard",0,"correct",1.0243,0,158,8,1,"Middle","10¢",18.1369863013699,18,"Adults",153
"639","Hard",1,"correct",0.9415,0,159,8,1,"Middle","10¢",18.1369863013699,18,"Adults",153
"640","Hard",1,"correct",0.5766,0,160,8,1,"Middle","10¢",18.1369863013699,18,"Adults",153
"641","Easy",0,"correct",0.4858,0,161,9,1,"Late","10¢",18.1369863013699,18,"Adults",153
"642","Easy",0,"correct",0.4498,0,162,9,1,"Late","10¢",18.1369863013699,18,"Adults",153
"643","Easy",0,"correct",0.4851,0,163,9,1,"Late","10¢",18.1369863013699,18,"Adults",153
"644","Easy",0,"correct",0.4676,0,164,9,1,"Late","10¢",18.1369863013699,18,"Adults",153
"645","Easy",0,"correct",0.4572,0,165,9,1,"Late","10¢",18.1369863013699,18,"Adults",153
"646","Easy",0,"correct",0.5283,0,166,9,1,"Late","10¢",18.1369863013699,18,"Adults",153
"647","Easy",1,"correct",0.6238,0,167,9,1,"Late","10¢",18.1369863013699,18,"Adults",153
"648","Easy",0,"correct",0.5839,0,168,9,1,"Late","10¢",18.1369863013699,18,"Adults",153
"649","Easy",0,"correct",0.821,0,169,9,1,"Late","10¢",18.1369863013699,18,"Adults",153
"650","Easy",0,"correct",0.6505,0,170,9,1,"Late","10¢",18.1369863013699,18,"Adults",153
"651","Easy",0,"correct",0.6179,0,171,9,1,"Late","10¢",18.1369863013699,18,"Adults",153
"652","Easy",1,"correct",0.5535,0,172,9,1,"Late","10¢",18.1369863013699,18,"Adults",153
"653","Easy",0,"correct",0.6013,0,173,9,1,"Late","10¢",18.1369863013699,18,"Adults",153
"654","Easy",0,"correct",0.5549,0,174,9,1,"Late","10¢",18.1369863013699,18,"Adults",153
"655","Easy",0,"correct",0.7071,0,175,9,1,"Late","10¢",18.1369863013699,18,"Adults",153
"656","Easy",1,"too_slow",NA,1,176,9,NA,"Late","10¢",18.1369863013699,18,"Adults",153
"657","Easy",0,"correct",0.6057,0,177,9,1,"Late","10¢",18.1369863013699,18,"Adults",153
"658","Easy",0,"correct",0.8901,0,178,9,1,"Late","10¢",18.1369863013699,18,"Adults",153
"659","Easy",0,"correct",0.6181,0,179,9,1,"Late","10¢",18.1369863013699,18,"Adults",153
"660","Easy",1,"correct",0.5857,0,180,9,1,"Late","10¢",18.1369863013699,18,"Adults",153
"661","Easy",0,"correct",0.9176,0,181,10,1,"Late","1¢",18.1369863013699,18,"Adults",153
"662","Easy",0,"correct",0.59,0,182,10,1,"Late","1¢",18.1369863013699,18,"Adults",153
"663","Easy",0,"correct",0.5688,0,183,10,1,"Late","1¢",18.1369863013699,18,"Adults",153
"664","Easy",1,"correct",0.6865,0,184,10,1,"Late","1¢",18.1369863013699,18,"Adults",153
"665","Easy",0,"correct",0.6241,0,185,10,1,"Late","1¢",18.1369863013699,18,"Adults",153
"666","Easy",0,"correct",0.5843,0,186,10,1,"Late","1¢",18.1369863013699,18,"Adults",153
"667","Easy",0,"correct",0.5869,0,187,10,1,"Late","1¢",18.1369863013699,18,"Adults",153
"668","Easy",1,"correct",0.8231,0,188,10,1,"Late","1¢",18.1369863013699,18,"Adults",153
"669","Easy",0,"correct",0.5906,0,189,10,1,"Late","1¢",18.1369863013699,18,"Adults",153
"670","Easy",1,"correct",0.5867,0,190,10,1,"Late","1¢",18.1369863013699,18,"Adults",153
"671","Easy",1,"correct",0.6049,0,191,10,1,"Late","1¢",18.1369863013699,18,"Adults",153
"672","Easy",0,"correct",0.4889,0,192,10,1,"Late","1¢",18.1369863013699,18,"Adults",153
"673","Easy",0,"correct",0.523,0,193,10,1,"Late","1¢",18.1369863013699,18,"Adults",153
"674","Easy",0,"correct",0.506,0,194,10,1,"Late","1¢",18.1369863013699,18,"Adults",153
"675","Easy",0,"correct",0.4557,0,195,10,1,"Late","1¢",18.1369863013699,18,"Adults",153
"676","Easy",0,"correct",0.4726,0,196,10,1,"Late","1¢",18.1369863013699,18,"Adults",153
"677","Easy",0,"correct",0.5256,0,197,10,1,"Late","1¢",18.1369863013699,18,"Adults",153
"678","Easy",0,"correct",0.4529,0,198,10,1,"Late","1¢",18.1369863013699,18,"Adults",153
"679","Easy",0,"correct",0.4708,0,199,10,1,"Late","1¢",18.1369863013699,18,"Adults",153
"680","Easy",0,"correct",0.5909,0,200,10,1,"Late","1¢",18.1369863013699,18,"Adults",153
"681","Hard",0,"correct",0.8631,0,201,11,1,"Late","10¢",18.1369863013699,18,"Adults",153
"682","Hard",1,"correct",0.6715,0,202,11,1,"Late","10¢",18.1369863013699,18,"Adults",153
"683","Hard",0,"correct",1.0396,0,203,11,1,"Late","10¢",18.1369863013699,18,"Adults",153
"684","Hard",1,"correct",0.5084,0,204,11,1,"Late","10¢",18.1369863013699,18,"Adults",153
"685","Hard",0,"correct",0.4563,0,205,11,1,"Late","10¢",18.1369863013699,18,"Adults",153
"686","Hard",1,"correct",0.6894,0,206,11,1,"Late","10¢",18.1369863013699,18,"Adults",153
"687","Hard",0,"correct",0.6068,0,207,11,1,"Late","10¢",18.1369863013699,18,"Adults",153
"688","Hard",0,"correct",0.8464,0,208,11,1,"Late","10¢",18.1369863013699,18,"Adults",153
"689","Hard",0,"correct",0.8351,0,209,11,1,"Late","10¢",18.1369863013699,18,"Adults",153
"690","Hard",1,"correct",0.8019,0,210,11,1,"Late","10¢",18.1369863013699,18,"Adults",153
"691","Hard",1,"correct",0.6043,0,211,11,1,"Late","10¢",18.1369863013699,18,"Adults",153
"692","Hard",0,"correct",0.8393,0,212,11,1,"Late","10¢",18.1369863013699,18,"Adults",153
"693","Hard",0,"correct",0.9041,0,213,11,1,"Late","10¢",18.1369863013699,18,"Adults",153
"694","Hard",1,"correct",0.6022,0,214,11,1,"Late","10¢",18.1369863013699,18,"Adults",153
"695","Hard",0,"correct",0.524,0,215,11,1,"Late","10¢",18.1369863013699,18,"Adults",153
"696","Hard",1,"correct",0.6905,0,216,11,1,"Late","10¢",18.1369863013699,18,"Adults",153
"697","Hard",0,"correct",0.6844,0,217,11,1,"Late","10¢",18.1369863013699,18,"Adults",153
"698","Hard",1,"correct",0.5564,0,218,11,1,"Late","10¢",18.1369863013699,18,"Adults",153
"699","Hard",1,"correct",0.584,0,219,11,1,"Late","10¢",18.1369863013699,18,"Adults",153
"700","Hard",1,"correct",0.4912,0,220,11,1,"Late","10¢",18.1369863013699,18,"Adults",153
"701","Hard",0,"correct",0.6497,0,221,12,1,"Late","1¢",18.1369863013699,18,"Adults",153
"702","Hard",1,"too_slow",NA,1,222,12,NA,"Late","1¢",18.1369863013699,18,"Adults",153
"703","Hard",0,"correct",0.8405,0,223,12,1,"Late","1¢",18.1369863013699,18,"Adults",153
"704","Hard",0,"correct",0.5851,0,224,12,1,"Late","1¢",18.1369863013699,18,"Adults",153
"705","Hard",1,"correct",0.7184,0,225,12,1,"Late","1¢",18.1369863013699,18,"Adults",153
"706","Hard",1,"correct",0.6046,0,226,12,1,"Late","1¢",18.1369863013699,18,"Adults",153
"707","Hard",0,"correct",0.5677,0,227,12,1,"Late","1¢",18.1369863013699,18,"Adults",153
"708","Hard",0,"correct",0.5887,0,228,12,1,"Late","1¢",18.1369863013699,18,"Adults",153
"709","Hard",1,"correct",0.5843,0,229,12,1,"Late","1¢",18.1369863013699,18,"Adults",153
"710","Hard",1,"correct",0.8699,0,230,12,1,"Late","1¢",18.1369863013699,18,"Adults",153
"711","Hard",0,"too_slow",NA,1,231,12,NA,"Late","1¢",18.1369863013699,18,"Adults",153
"712","Hard",0,"correct",0.909,0,232,12,1,"Late","1¢",18.1369863013699,18,"Adults",153
"713","Hard",1,"correct",0.9228,0,233,12,1,"Late","1¢",18.1369863013699,18,"Adults",153
"714","Hard",1,"correct",1.0774,0,234,12,1,"Late","1¢",18.1369863013699,18,"Adults",153
"715","Hard",1,"correct",0.6239,0,235,12,1,"Late","1¢",18.1369863013699,18,"Adults",153
"716","Hard",1,"correct",0.8901,0,236,12,1,"Late","1¢",18.1369863013699,18,"Adults",153
"717","Hard",0,"correct",0.6988,0,237,12,1,"Late","1¢",18.1369863013699,18,"Adults",153
"718","Hard",0,"correct",0.9047,0,238,12,1,"Late","1¢",18.1369863013699,18,"Adults",153
"719","Hard",1,"correct",0.6898,0,239,12,1,"Late","1¢",18.1369863013699,18,"Adults",153
"720","Hard",0,"correct",0.5916,0,240,12,1,"Late","1¢",18.1369863013699,18,"Adults",153
"721","Easy",0,"correct",1.3495,0,1,1,1,"Early","10¢",14.0465753424658,14,"Adolescents",154
"722","Easy",0,"correct",0.9339,0,2,1,1,"Early","10¢",14.0465753424658,14,"Adolescents",154
"723","Easy",0,"correct",1.1242,0,3,1,1,"Early","10¢",14.0465753424658,14,"Adolescents",154
"724","Easy",0,"correct",0.6399,0,4,1,1,"Early","10¢",14.0465753424658,14,"Adolescents",154
"725","Easy",0,"correct",0.7206,0,5,1,1,"Early","10¢",14.0465753424658,14,"Adolescents",154
"726","Easy",0,"correct",0.6347,0,6,1,1,"Early","10¢",14.0465753424658,14,"Adolescents",154
"727","Easy",0,"correct",0.8856,0,7,1,1,"Early","10¢",14.0465753424658,14,"Adolescents",154
"728","Easy",1,"correct",1.4744,0,8,1,1,"Early","10¢",14.0465753424658,14,"Adolescents",154
"729","Easy",0,"correct",1.4716,0,9,1,1,"Early","10¢",14.0465753424658,14,"Adolescents",154
"730","Easy",0,"correct",1.4036,0,10,1,1,"Early","10¢",14.0465753424658,14,"Adolescents",154
"731","Easy",0,"correct",1.0938,0,11,1,1,"Early","10¢",14.0465753424658,14,"Adolescents",154
"732","Easy",0,"correct",1.4383,0,12,1,1,"Early","10¢",14.0465753424658,14,"Adolescents",154
"733","Easy",0,"correct",1.1944,0,13,1,1,"Early","10¢",14.0465753424658,14,"Adolescents",154
"734","Easy",0,"too_slow",NA,1,14,1,NA,"Early","10¢",14.0465753424658,14,"Adolescents",154
"735","Easy",0,"correct",1.1789,0,15,1,1,"Early","10¢",14.0465753424658,14,"Adolescents",154
"736","Easy",0,"too_slow",NA,1,16,1,NA,"Early","10¢",14.0465753424658,14,"Adolescents",154
"737","Easy",0,"correct",1.2758,0,17,1,1,"Early","10¢",14.0465753424658,14,"Adolescents",154
"738","Easy",1,"correct",1.2174,0,18,1,1,"Early","10¢",14.0465753424658,14,"Adolescents",154
"739","Easy",1,"correct",1.0693,0,19,1,1,"Early","10¢",14.0465753424658,14,"Adolescents",154
"740","Easy",1,"correct",1.6599,0,20,1,1,"Early","10¢",14.0465753424658,14,"Adolescents",154
"741","Easy",0,"correct",1.1382,0,21,2,1,"Early","1¢",14.0465753424658,14,"Adolescents",154
"742","Easy",1,"correct",1.7985,0,22,2,1,"Early","1¢",14.0465753424658,14,"Adolescents",154
"743","Easy",0,"correct",0.9847,0,23,2,1,"Early","1¢",14.0465753424658,14,"Adolescents",154
"744","Easy",1,"correct",1.1513,0,24,2,1,"Early","1¢",14.0465753424658,14,"Adolescents",154
"745","Easy",0,"correct",0.7018,0,25,2,1,"Early","1¢",14.0465753424658,14,"Adolescents",154
"746","Easy",0,"correct",0.8552,0,26,2,1,"Early","1¢",14.0465753424658,14,"Adolescents",154
"747","Easy",0,"correct",0.7016,0,27,2,1,"Early","1¢",14.0465753424658,14,"Adolescents",154
"748","Easy",0,"correct",0.762,0,28,2,1,"Early","1¢",14.0465753424658,14,"Adolescents",154
"749","Easy",0,"correct",1.0668,0,29,2,1,"Early","1¢",14.0465753424658,14,"Adolescents",154
"750","Easy",0,"correct",0.7617,0,30,2,1,"Early","1¢",14.0465753424658,14,"Adolescents",154
"751","Easy",0,"correct",0.5359,0,31,2,1,"Early","1¢",14.0465753424658,14,"Adolescents",154
"752","Easy",0,"correct",0.7084,0,32,2,1,"Early","1¢",14.0465753424658,14,"Adolescents",154
"753","Easy",1,"correct",1.586,0,33,2,1,"Early","1¢",14.0465753424658,14,"Adolescents",154
"754","Easy",0,"correct",1.2377,0,34,2,1,"Early","1¢",14.0465753424658,14,"Adolescents",154
"755","Easy",0,"correct",1.5095,0,35,2,1,"Early","1¢",14.0465753424658,14,"Adolescents",154
"756","Easy",0,"correct",1.0953,0,36,2,1,"Early","1¢",14.0465753424658,14,"Adolescents",154
"757","Easy",0,"correct",0.9745,0,37,2,1,"Early","1¢",14.0465753424658,14,"Adolescents",154
"758","Easy",1,"correct",0.7594,0,38,2,1,"Early","1¢",14.0465753424658,14,"Adolescents",154
"759","Easy",0,"correct",0.6569,0,39,2,1,"Early","1¢",14.0465753424658,14,"Adolescents",154
"760","Easy",0,"correct",0.5446,0,40,2,1,"Early","1¢",14.0465753424658,14,"Adolescents",154
"761","Hard",0,"correct",0.9865,0,41,3,1,"Early","10¢",14.0465753424658,14,"Adolescents",154
"762","Hard",0,"correct",0.7969,0,42,3,1,"Early","10¢",14.0465753424658,14,"Adolescents",154
"763","Hard",0,"correct",1.0762,0,43,3,1,"Early","10¢",14.0465753424658,14,"Adolescents",154
"764","Hard",0,"correct",0.8493,0,44,3,1,"Early","10¢",14.0465753424658,14,"Adolescents",154
"765","Hard",0,"correct",0.5645,0,45,3,1,"Early","10¢",14.0465753424658,14,"Adolescents",154
"766","Hard",1,"correct",1.4658,0,46,3,1,"Early","10¢",14.0465753424658,14,"Adolescents",154
"767","Hard",1,"correct",0.948,0,47,3,1,"Early","10¢",14.0465753424658,14,"Adolescents",154
"768","Hard",1,"correct",1.2073,0,48,3,1,"Early","10¢",14.0465753424658,14,"Adolescents",154
"769","Hard",0,"correct",1.1969,0,49,3,1,"Early","10¢",14.0465753424658,14,"Adolescents",154
"770","Hard",1,"correct",1.0664,0,50,3,1,"Early","10¢",14.0465753424658,14,"Adolescents",154
"771","Hard",1,"correct",1.1887,0,51,3,1,"Early","10¢",14.0465753424658,14,"Adolescents",154
"772","Hard",0,"correct",1.0965,0,52,3,1,"Early","10¢",14.0465753424658,14,"Adolescents",154
"773","Hard",0,"correct",1.3768,0,53,3,1,"Early","10¢",14.0465753424658,14,"Adolescents",154
"774","Hard",1,"correct",1.5024,0,54,3,1,"Early","10¢",14.0465753424658,14,"Adolescents",154
"775","Hard",1,"correct",1.2827,0,55,3,1,"Early","10¢",14.0465753424658,14,"Adolescents",154
"776","Hard",0,"correct",1.018,0,56,3,1,"Early","10¢",14.0465753424658,14,"Adolescents",154
"777","Hard",1,"correct",0.9772,0,57,3,1,"Early","10¢",14.0465753424658,14,"Adolescents",154
"778","Hard",0,"correct",0.6743,0,58,3,1,"Early","10¢",14.0465753424658,14,"Adolescents",154
"779","Hard",1,"correct",1.2223,0,59,3,1,"Early","10¢",14.0465753424658,14,"Adolescents",154
"780","Hard",1,"correct",1.078,0,60,3,1,"Early","10¢",14.0465753424658,14,"Adolescents",154
"781","Hard",0,"correct",1.397,0,61,4,1,"Early","1¢",14.0465753424658,14,"Adolescents",154
"782","Hard",1,"correct",1.2025,0,62,4,1,"Early","1¢",14.0465753424658,14,"Adolescents",154
"783","Hard",0,"correct",0.8126,0,63,4,1,"Early","1¢",14.0465753424658,14,"Adolescents",154
"784","Hard",0,"correct",1.0072,0,64,4,1,"Early","1¢",14.0465753424658,14,"Adolescents",154
"785","Hard",1,"correct",0.8626,0,65,4,1,"Early","1¢",14.0465753424658,14,"Adolescents",154
"786","Hard",0,"correct",0.7622,0,66,4,1,"Early","1¢",14.0465753424658,14,"Adolescents",154
"787","Hard",1,"correct",0.7892,0,67,4,1,"Early","1¢",14.0465753424658,14,"Adolescents",154
"788","Hard",1,"correct",1.4324,0,68,4,1,"Early","1¢",14.0465753424658,14,"Adolescents",154
"789","Hard",0,"correct",0.6721,0,69,4,1,"Early","1¢",14.0465753424658,14,"Adolescents",154
"790","Hard",1,"correct",1.0638,0,70,4,1,"Early","1¢",14.0465753424658,14,"Adolescents",154
"791","Hard",0,"correct",0.739,0,71,4,1,"Early","1¢",14.0465753424658,14,"Adolescents",154
"792","Hard",1,"correct",0.9191,0,72,4,1,"Early","1¢",14.0465753424658,14,"Adolescents",154
"793","Hard",1,"correct",0.8851,0,73,4,1,"Early","1¢",14.0465753424658,14,"Adolescents",154
"794","Hard",1,"correct",0.8617,0,74,4,1,"Early","1¢",14.0465753424658,14,"Adolescents",154
"795","Hard",0,"correct",0.703,0,75,4,1,"Early","1¢",14.0465753424658,14,"Adolescents",154
"796","Hard",0,"correct",0.7016,0,76,4,1,"Early","1¢",14.0465753424658,14,"Adolescents",154
"797","Hard",1,"correct",1.428,0,77,4,1,"Early","1¢",14.0465753424658,14,"Adolescents",154
"798","Hard",0,"correct",1.4315,0,78,4,1,"Early","1¢",14.0465753424658,14,"Adolescents",154
"799","Hard",1,"correct",1.0181,0,79,4,1,"Early","1¢",14.0465753424658,14,"Adolescents",154
"800","Hard",0,"correct",1.715,0,80,4,1,"Early","1¢",14.0465753424658,14,"Adolescents",154
"801","Easy",0,"correct",0.9348,0,81,5,1,"Middle","1¢",14.0465753424658,14,"Adolescents",154
"802","Easy",0,"correct",1.8863,0,82,5,1,"Middle","1¢",14.0465753424658,14,"Adolescents",154
"803","Easy",1,"correct",1.2018,0,83,5,1,"Middle","1¢",14.0465753424658,14,"Adolescents",154
"804","Easy",0,"correct",1.0934,0,84,5,1,"Middle","1¢",14.0465753424658,14,"Adolescents",154
"805","Easy",0,"correct",1.1066,0,85,5,1,"Middle","1¢",14.0465753424658,14,"Adolescents",154
"806","Easy",0,"correct",1.2147,0,86,5,1,"Middle","1¢",14.0465753424658,14,"Adolescents",154
"807","Easy",0,"correct",1.045,0,87,5,1,"Middle","1¢",14.0465753424658,14,"Adolescents",154
"808","Easy",1,"correct",1.0861,0,88,5,1,"Middle","1¢",14.0465753424658,14,"Adolescents",154
"809","Easy",0,"correct",0.6971,0,89,5,1,"Middle","1¢",14.0465753424658,14,"Adolescents",154
"810","Easy",0,"correct",0.6425,0,90,5,1,"Middle","1¢",14.0465753424658,14,"Adolescents",154
"811","Easy",0,"correct",0.6938,0,91,5,1,"Middle","1¢",14.0465753424658,14,"Adolescents",154
"812","Easy",0,"correct",0.7658,0,92,5,1,"Middle","1¢",14.0465753424658,14,"Adolescents",154
"813","Easy",0,"correct",0.6514,0,93,5,1,"Middle","1¢",14.0465753424658,14,"Adolescents",154
"814","Easy",1,"correct",0.9778,0,94,5,1,"Middle","1¢",14.0465753424658,14,"Adolescents",154
"815","Easy",0,"correct",0.8536,0,95,5,1,"Middle","1¢",14.0465753424658,14,"Adolescents",154
"816","Easy",0,"correct",0.9731,0,96,5,1,"Middle","1¢",14.0465753424658,14,"Adolescents",154
"817","Easy",0,"correct",1.268,0,97,5,1,"Middle","1¢",14.0465753424658,14,"Adolescents",154
"818","Easy",0,"correct",1.3396,0,98,5,1,"Middle","1¢",14.0465753424658,14,"Adolescents",154
"819","Easy",1,"correct",0.9395,0,99,5,1,"Middle","1¢",14.0465753424658,14,"Adolescents",154
"820","Easy",0,"correct",0.9691,0,100,5,1,"Middle","1¢",14.0465753424658,14,"Adolescents",154
"821","Easy",0,"correct",0.8589,0,101,6,1,"Middle","10¢",14.0465753424658,14,"Adolescents",154
"822","Easy",0,"correct",1.2171,0,102,6,1,"Middle","10¢",14.0465753424658,14,"Adolescents",154
"823","Easy",0,"correct",0.8686,0,103,6,1,"Middle","10¢",14.0465753424658,14,"Adolescents",154
"824","Easy",0,"correct",1.306,0,104,6,1,"Middle","10¢",14.0465753424658,14,"Adolescents",154
"825","Easy",1,"correct",1.561,0,105,6,1,"Middle","10¢",14.0465753424658,14,"Adolescents",154
"826","Easy",0,"correct",0.9283,0,106,6,1,"Middle","10¢",14.0465753424658,14,"Adolescents",154
"827","Easy",0,"correct",1.1349,0,107,6,1,"Middle","10¢",14.0465753424658,14,"Adolescents",154
"828","Easy",0,"correct",0.8804,0,108,6,1,"Middle","10¢",14.0465753424658,14,"Adolescents",154
"829","Easy",0,"correct",1.0568,0,109,6,1,"Middle","10¢",14.0465753424658,14,"Adolescents",154
"830","Easy",1,"correct",1.2699,0,110,6,1,"Middle","10¢",14.0465753424658,14,"Adolescents",154
"831","Easy",0,"correct",1.1512,0,111,6,1,"Middle","10¢",14.0465753424658,14,"Adolescents",154
"832","Easy",0,"correct",0.8047,0,112,6,1,"Middle","10¢",14.0465753424658,14,"Adolescents",154
"833","Easy",0,"correct",0.9935,0,113,6,1,"Middle","10¢",14.0465753424658,14,"Adolescents",154
"834","Easy",0,"correct",0.9752,0,114,6,1,"Middle","10¢",14.0465753424658,14,"Adolescents",154
"835","Easy",0,"correct",1.1289,0,115,6,1,"Middle","10¢",14.0465753424658,14,"Adolescents",154
"836","Easy",1,"correct",1.2767,0,116,6,1,"Middle","10¢",14.0465753424658,14,"Adolescents",154
"837","Easy",1,"correct",1.0898,0,117,6,1,"Middle","10¢",14.0465753424658,14,"Adolescents",154
"838","Easy",0,"correct",0.9758,0,118,6,1,"Middle","10¢",14.0465753424658,14,"Adolescents",154
"839","Easy",0,"correct",0.6466,0,119,6,1,"Middle","10¢",14.0465753424658,14,"Adolescents",154
"840","Easy",0,"correct",1.0538,0,120,6,1,"Middle","10¢",14.0465753424658,14,"Adolescents",154
"841","Hard",0,"too_slow",NA,1,121,7,NA,"Middle","1¢",14.0465753424658,14,"Adolescents",154
"842","Hard",1,"correct",1.0463,0,122,7,1,"Middle","1¢",14.0465753424658,14,"Adolescents",154
"843","Hard",1,"correct",1.1151,0,123,7,1,"Middle","1¢",14.0465753424658,14,"Adolescents",154
"844","Hard",1,"correct",1.0238,0,124,7,1,"Middle","1¢",14.0465753424658,14,"Adolescents",154
"845","Hard",1,"correct",1.0098,0,125,7,1,"Middle","1¢",14.0465753424658,14,"Adolescents",154
"846","Hard",0,"correct",1.1907,0,126,7,1,"Middle","1¢",14.0465753424658,14,"Adolescents",154
"847","Hard",0,"correct",0.9985,0,127,7,1,"Middle","1¢",14.0465753424658,14,"Adolescents",154
"848","Hard",0,"correct",0.9749,0,128,7,1,"Middle","1¢",14.0465753424658,14,"Adolescents",154
"849","Hard",1,"correct",1.3802,0,129,7,1,"Middle","1¢",14.0465753424658,14,"Adolescents",154
"850","Hard",1,"correct",0.7699,0,130,7,1,"Middle","1¢",14.0465753424658,14,"Adolescents",154
"851","Hard",1,"correct",1.0066,0,131,7,1,"Middle","1¢",14.0465753424658,14,"Adolescents",154
"852","Hard",0,"correct",1.0745,0,132,7,1,"Middle","1¢",14.0465753424658,14,"Adolescents",154
"853","Hard",1,"correct",1.1292,0,133,7,1,"Middle","1¢",14.0465753424658,14,"Adolescents",154
"854","Hard",0,"correct",0.8851,0,134,7,1,"Middle","1¢",14.0465753424658,14,"Adolescents",154
"855","Hard",0,"correct",0.9971,0,135,7,1,"Middle","1¢",14.0465753424658,14,"Adolescents",154
"856","Hard",1,"correct",0.8823,0,136,7,1,"Middle","1¢",14.0465753424658,14,"Adolescents",154
"857","Hard",0,"correct",1.0328,0,137,7,1,"Middle","1¢",14.0465753424658,14,"Adolescents",154
"858","Hard",1,"correct",1.0806,0,138,7,1,"Middle","1¢",14.0465753424658,14,"Adolescents",154
"859","Hard",0,"correct",1.4407,0,139,7,1,"Middle","1¢",14.0465753424658,14,"Adolescents",154
"860","Hard",0,"correct",0.8256,0,140,7,1,"Middle","1¢",14.0465753424658,14,"Adolescents",154
"861","Hard",0,"correct",0.8173,0,141,8,1,"Middle","10¢",14.0465753424658,14,"Adolescents",154
"862","Hard",1,"correct",0.9298,0,142,8,1,"Middle","10¢",14.0465753424658,14,"Adolescents",154
"863","Hard",0,"correct",1.3251,0,143,8,1,"Middle","10¢",14.0465753424658,14,"Adolescents",154
"864","Hard",1,"correct",1.054,0,144,8,1,"Middle","10¢",14.0465753424658,14,"Adolescents",154
"865","Hard",0,"correct",0.8064,0,145,8,1,"Middle","10¢",14.0465753424658,14,"Adolescents",154
"866","Hard",0,"correct",1.162,0,146,8,1,"Middle","10¢",14.0465753424658,14,"Adolescents",154
"867","Hard",1,"correct",1.2601,0,147,8,1,"Middle","10¢",14.0465753424658,14,"Adolescents",154
"868","Hard",1,"correct",0.9935,0,148,8,1,"Middle","10¢",14.0465753424658,14,"Adolescents",154
"869","Hard",1,"correct",1.5007,0,149,8,1,"Middle","10¢",14.0465753424658,14,"Adolescents",154
"870","Hard",1,"correct",0.717,0,150,8,1,"Middle","10¢",14.0465753424658,14,"Adolescents",154
"871","Hard",0,"correct",1.6022,0,151,8,1,"Middle","10¢",14.0465753424658,14,"Adolescents",154
"872","Hard",1,"too_slow",NA,1,152,8,NA,"Middle","10¢",14.0465753424658,14,"Adolescents",154
"873","Hard",0,"too_slow",NA,1,153,8,NA,"Middle","10¢",14.0465753424658,14,"Adolescents",154
"874","Hard",0,"correct",1.2774,0,154,8,1,"Middle","10¢",14.0465753424658,14,"Adolescents",154
"875","Hard",1,"correct",0.8954,0,155,8,1,"Middle","10¢",14.0465753424658,14,"Adolescents",154
"876","Hard",0,"correct",0.8356,0,156,8,1,"Middle","10¢",14.0465753424658,14,"Adolescents",154
"877","Hard",1,"correct",1.3409,0,157,8,1,"Middle","10¢",14.0465753424658,14,"Adolescents",154
"878","Hard",0,"correct",1.4322,0,158,8,1,"Middle","10¢",14.0465753424658,14,"Adolescents",154
"879","Hard",1,"correct",0.8098,0,159,8,1,"Middle","10¢",14.0465753424658,14,"Adolescents",154
"880","Hard",0,"correct",1.5416,0,160,8,1,"Middle","10¢",14.0465753424658,14,"Adolescents",154
"881","Easy",0,"correct",1.0874,0,161,9,1,"Late","10¢",14.0465753424658,14,"Adolescents",154
"882","Easy",0,"correct",1.0994,0,162,9,1,"Late","10¢",14.0465753424658,14,"Adolescents",154
"883","Easy",0,"correct",0.7966,0,163,9,1,"Late","10¢",14.0465753424658,14,"Adolescents",154
"884","Easy",0,"correct",0.577,0,164,9,1,"Late","10¢",14.0465753424658,14,"Adolescents",154
"885","Easy",1,"correct",0.9521,0,165,9,1,"Late","10¢",14.0465753424658,14,"Adolescents",154
"886","Easy",0,"correct",1.0839,0,166,9,1,"Late","10¢",14.0465753424658,14,"Adolescents",154
"887","Easy",1,"correct",0.9896,0,167,9,1,"Late","10¢",14.0465753424658,14,"Adolescents",154
"888","Easy",0,"correct",1.3499,0,168,9,1,"Late","10¢",14.0465753424658,14,"Adolescents",154
"889","Easy",0,"correct",1.0205,0,169,9,1,"Late","10¢",14.0465753424658,14,"Adolescents",154
"890","Easy",0,"correct",1.4062,0,170,9,1,"Late","10¢",14.0465753424658,14,"Adolescents",154
"891","Easy",0,"correct",0.9702,0,171,9,1,"Late","10¢",14.0465753424658,14,"Adolescents",154
"892","Easy",0,"correct",0.9897,0,172,9,1,"Late","10¢",14.0465753424658,14,"Adolescents",154
"893","Easy",0,"correct",0.8063,0,173,9,1,"Late","10¢",14.0465753424658,14,"Adolescents",154
"894","Easy",1,"correct",1.1343,0,174,9,1,"Late","10¢",14.0465753424658,14,"Adolescents",154
"895","Easy",0,"correct",1.0354,0,175,9,1,"Late","10¢",14.0465753424658,14,"Adolescents",154
"896","Easy",0,"correct",1.402,0,176,9,1,"Late","10¢",14.0465753424658,14,"Adolescents",154
"897","Easy",0,"correct",0.9141,0,177,9,1,"Late","10¢",14.0465753424658,14,"Adolescents",154
"898","Easy",0,"correct",1.0338,0,178,9,1,"Late","10¢",14.0465753424658,14,"Adolescents",154
"899","Easy",1,"correct",0.9848,0,179,9,1,"Late","10¢",14.0465753424658,14,"Adolescents",154
"900","Easy",0,"correct",0.8683,0,180,9,1,"Late","10¢",14.0465753424658,14,"Adolescents",154
"901","Easy",0,"correct",0.9233,0,181,10,1,"Late","1¢",14.0465753424658,14,"Adolescents",154
"902","Easy",1,"correct",0.8916,0,182,10,1,"Late","1¢",14.0465753424658,14,"Adolescents",154
"903","Easy",0,"correct",1.4395,0,183,10,1,"Late","1¢",14.0465753424658,14,"Adolescents",154
"904","Easy",0,"correct",0.8979,0,184,10,1,"Late","1¢",14.0465753424658,14,"Adolescents",154
"905","Easy",0,"correct",1.067,0,185,10,1,"Late","1¢",14.0465753424658,14,"Adolescents",154
"906","Easy",0,"correct",0.8593,0,186,10,1,"Late","1¢",14.0465753424658,14,"Adolescents",154
"907","Easy",0,"correct",1.1823,0,187,10,1,"Late","1¢",14.0465753424658,14,"Adolescents",154
"908","Easy",0,"correct",0.7643,0,188,10,1,"Late","1¢",14.0465753424658,14,"Adolescents",154
"909","Easy",0,"correct",1.5169,0,189,10,1,"Late","1¢",14.0465753424658,14,"Adolescents",154
"910","Easy",0,"correct",0.8366,0,190,10,1,"Late","1¢",14.0465753424658,14,"Adolescents",154
"911","Easy",0,"correct",1.0876,0,191,10,1,"Late","1¢",14.0465753424658,14,"Adolescents",154
"912","Easy",0,"correct",1.3578,0,192,10,1,"Late","1¢",14.0465753424658,14,"Adolescents",154
"913","Easy",0,"incorrect",0.7328,0,193,10,0,"Late","1¢",14.0465753424658,14,"Adolescents",154
"914","Easy",0,"correct",0.9536,0,194,10,1,"Late","1¢",14.0465753424658,14,"Adolescents",154
"915","Easy",0,"correct",1.2811,0,195,10,1,"Late","1¢",14.0465753424658,14,"Adolescents",154
"916","Easy",1,"correct",1.3934,0,196,10,1,"Late","1¢",14.0465753424658,14,"Adolescents",154
"917","Easy",0,"correct",0.9102,0,197,10,1,"Late","1¢",14.0465753424658,14,"Adolescents",154
"918","Easy",1,"correct",1.1561,0,198,10,1,"Late","1¢",14.0465753424658,14,"Adolescents",154
"919","Easy",1,"correct",1.2243,0,199,10,1,"Late","1¢",14.0465753424658,14,"Adolescents",154
"920","Easy",0,"correct",1.0075,0,200,10,1,"Late","1¢",14.0465753424658,14,"Adolescents",154
"921","Hard",0,"correct",1.3279,0,201,11,1,"Late","10¢",14.0465753424658,14,"Adolescents",154
"922","Hard",0,"too_slow",NA,1,202,11,NA,"Late","10¢",14.0465753424658,14,"Adolescents",154
"923","Hard",1,"correct",0.9398,0,203,11,1,"Late","10¢",14.0465753424658,14,"Adolescents",154
"924","Hard",1,"correct",0.8018,0,204,11,1,"Late","10¢",14.0465753424658,14,"Adolescents",154
"925","Hard",0,"correct",0.8728,0,205,11,1,"Late","10¢",14.0465753424658,14,"Adolescents",154
"926","Hard",1,"correct",0.7409,0,206,11,1,"Late","10¢",14.0465753424658,14,"Adolescents",154
"927","Hard",0,"correct",0.771,0,207,11,1,"Late","10¢",14.0465753424658,14,"Adolescents",154
"928","Hard",0,"correct",0.8121,0,208,11,1,"Late","10¢",14.0465753424658,14,"Adolescents",154
"929","Hard",1,"correct",1.3361,0,209,11,1,"Late","10¢",14.0465753424658,14,"Adolescents",154
"930","Hard",1,"correct",1.0461,0,210,11,1,"Late","10¢",14.0465753424658,14,"Adolescents",154
"931","Hard",0,"correct",0.8573,0,211,11,1,"Late","10¢",14.0465753424658,14,"Adolescents",154
"932","Hard",0,"correct",1.0303,0,212,11,1,"Late","10¢",14.0465753424658,14,"Adolescents",154
"933","Hard",1,"correct",1.1178,0,213,11,1,"Late","10¢",14.0465753424658,14,"Adolescents",154
"934","Hard",0,"correct",1.0668,0,214,11,1,"Late","10¢",14.0465753424658,14,"Adolescents",154
"935","Hard",1,"correct",1.1606,0,215,11,1,"Late","10¢",14.0465753424658,14,"Adolescents",154
"936","Hard",1,"correct",0.7877,0,216,11,1,"Late","10¢",14.0465753424658,14,"Adolescents",154
"937","Hard",1,"correct",0.7979,0,217,11,1,"Late","10¢",14.0465753424658,14,"Adolescents",154
"938","Hard",0,"correct",0.907,0,218,11,1,"Late","10¢",14.0465753424658,14,"Adolescents",154
"939","Hard",0,"correct",1.0259,0,219,11,1,"Late","10¢",14.0465753424658,14,"Adolescents",154
"940","Hard",1,"correct",0.91,0,220,11,1,"Late","10¢",14.0465753424658,14,"Adolescents",154
"941","Hard",0,"correct",0.9843,0,221,12,1,"Late","1¢",14.0465753424658,14,"Adolescents",154
"942","Hard",0,"correct",0.628,0,222,12,1,"Late","1¢",14.0465753424658,14,"Adolescents",154
"943","Hard",0,"correct",0.8794,0,223,12,1,"Late","1¢",14.0465753424658,14,"Adolescents",154
"944","Hard",1,"correct",1.0726,0,224,12,1,"Late","1¢",14.0465753424658,14,"Adolescents",154
"945","Hard",1,"correct",1.0077,0,225,12,1,"Late","1¢",14.0465753424658,14,"Adolescents",154
"946","Hard",1,"correct",1.1799,0,226,12,1,"Late","1¢",14.0465753424658,14,"Adolescents",154
"947","Hard",1,"too_slow",NA,1,227,12,NA,"Late","1¢",14.0465753424658,14,"Adolescents",154
"948","Hard",0,"correct",1.1152,0,228,12,1,"Late","1¢",14.0465753424658,14,"Adolescents",154
"949","Hard",0,"correct",0.7667,0,229,12,1,"Late","1¢",14.0465753424658,14,"Adolescents",154
"950","Hard",1,"correct",0.8381,0,230,12,1,"Late","1¢",14.0465753424658,14,"Adolescents",154
"951","Hard",0,"correct",0.7017,0,231,12,1,"Late","1¢",14.0465753424658,14,"Adolescents",154
"952","Hard",0,"correct",0.5278,0,232,12,1,"Late","1¢",14.0465753424658,14,"Adolescents",154
"953","Hard",1,"correct",0.7674,0,233,12,1,"Late","1¢",14.0465753424658,14,"Adolescents",154
"954","Hard",1,"correct",1.0285,0,234,12,1,"Late","1¢",14.0465753424658,14,"Adolescents",154
"955","Hard",1,"correct",1.2966,0,235,12,1,"Late","1¢",14.0465753424658,14,"Adolescents",154
"956","Hard",0,"correct",1.0444,0,236,12,1,"Late","1¢",14.0465753424658,14,"Adolescents",154
"957","Hard",0,"correct",1.0608,0,237,12,1,"Late","1¢",14.0465753424658,14,"Adolescents",154
"958","Hard",1,"correct",1.2295,0,238,12,1,"Late","1¢",14.0465753424658,14,"Adolescents",154
"959","Hard",0,"correct",1.1757,0,239,12,1,"Late","1¢",14.0465753424658,14,"Adolescents",154
"960","Hard",1,"correct",0.904,0,240,12,1,"Late","1¢",14.0465753424658,14,"Adolescents",154
"961","Easy",0,"correct",1.2242,0,1,1,1,"Early","10¢",13.1123287671233,13,"Adolescents",155
"962","Easy",0,"correct",0.6992,0,2,1,1,"Early","10¢",13.1123287671233,13,"Adolescents",155
"963","Easy",0,"correct",0.7231,0,3,1,1,"Early","10¢",13.1123287671233,13,"Adolescents",155
"964","Easy",0,"correct",0.7698,0,4,1,1,"Early","10¢",13.1123287671233,13,"Adolescents",155
"965","Easy",0,"correct",0.8715,0,5,1,1,"Early","10¢",13.1123287671233,13,"Adolescents",155
"966","Easy",0,"correct",0.5707,0,6,1,1,"Early","10¢",13.1123287671233,13,"Adolescents",155
"967","Easy",0,"correct",0.6656,0,7,1,1,"Early","10¢",13.1123287671233,13,"Adolescents",155
"968","Easy",0,"correct",0.4552,0,8,1,1,"Early","10¢",13.1123287671233,13,"Adolescents",155
"969","Easy",0,"correct",0.6509,0,9,1,1,"Early","10¢",13.1123287671233,13,"Adolescents",155
"970","Easy",0,"correct",0.5925,0,10,1,1,"Early","10¢",13.1123287671233,13,"Adolescents",155
"971","Easy",1,"correct",0.803,0,11,1,1,"Early","10¢",13.1123287671233,13,"Adolescents",155
"972","Easy",0,"correct",0.6878,0,12,1,1,"Early","10¢",13.1123287671233,13,"Adolescents",155
"973","Easy",0,"correct",0.6496,0,13,1,1,"Early","10¢",13.1123287671233,13,"Adolescents",155
"974","Easy",0,"correct",0.7352,0,14,1,1,"Early","10¢",13.1123287671233,13,"Adolescents",155
"975","Easy",0,"correct",0.8335,0,15,1,1,"Early","10¢",13.1123287671233,13,"Adolescents",155
"976","Easy",1,"correct",0.7601,0,16,1,1,"Early","10¢",13.1123287671233,13,"Adolescents",155
"977","Easy",1,"correct",0.9052,0,17,1,1,"Early","10¢",13.1123287671233,13,"Adolescents",155
"978","Easy",0,"correct",0.9037,0,18,1,1,"Early","10¢",13.1123287671233,13,"Adolescents",155
"979","Easy",1,"correct",0.8941,0,19,1,1,"Early","10¢",13.1123287671233,13,"Adolescents",155
"980","Easy",0,"correct",0.609,0,20,1,1,"Early","10¢",13.1123287671233,13,"Adolescents",155
"981","Easy",0,"correct",1.3413,0,21,2,1,"Early","1¢",13.1123287671233,13,"Adolescents",155
"982","Easy",0,"correct",0.4896,0,22,2,1,"Early","1¢",13.1123287671233,13,"Adolescents",155
"983","Easy",0,"correct",0.8054,0,23,2,1,"Early","1¢",13.1123287671233,13,"Adolescents",155
"984","Easy",0,"correct",0.7327,0,24,2,1,"Early","1¢",13.1123287671233,13,"Adolescents",155
"985","Easy",0,"correct",0.6349,0,25,2,1,"Early","1¢",13.1123287671233,13,"Adolescents",155
"986","Easy",0,"correct",0.5919,0,26,2,1,"Early","1¢",13.1123287671233,13,"Adolescents",155
"987","Easy",1,"correct",0.8935,0,27,2,1,"Early","1¢",13.1123287671233,13,"Adolescents",155
"988","Easy",0,"incorrect",0.7158,0,28,2,0,"Early","1¢",13.1123287671233,13,"Adolescents",155
"989","Easy",0,"correct",1.2872,0,29,2,1,"Early","1¢",13.1123287671233,13,"Adolescents",155
"990","Easy",0,"correct",0.8406,0,30,2,1,"Early","1¢",13.1123287671233,13,"Adolescents",155
"991","Easy",1,"correct",0.8397,0,31,2,1,"Early","1¢",13.1123287671233,13,"Adolescents",155
"992","Easy",1,"correct",0.888,0,32,2,1,"Early","1¢",13.1123287671233,13,"Adolescents",155
"993","Easy",0,"correct",0.7005,0,33,2,1,"Early","1¢",13.1123287671233,13,"Adolescents",155
"994","Easy",0,"correct",0.8377,0,34,2,1,"Early","1¢",13.1123287671233,13,"Adolescents",155
"995","Easy",0,"correct",0.7406,0,35,2,1,"Early","1¢",13.1123287671233,13,"Adolescents",155
"996","Easy",0,"correct",0.7062,0,36,2,1,"Early","1¢",13.1123287671233,13,"Adolescents",155
"997","Easy",1,"correct",0.7523,0,37,2,1,"Early","1¢",13.1123287671233,13,"Adolescents",155
"998","Easy",0,"correct",0.6654,0,38,2,1,"Early","1¢",13.1123287671233,13,"Adolescents",155
"999","Easy",0,"correct",0.8043,0,39,2,1,"Early","1¢",13.1123287671233,13,"Adolescents",155
"1000","Easy",0,"correct",0.6576,0,40,2,1,"Early","1¢",13.1123287671233,13,"Adolescents",155
"1001","Hard",0,"correct",0.9916,0,41,3,1,"Early","10¢",13.1123287671233,13,"Adolescents",155
"1002","Hard",0,"correct",0.6655,0,42,3,1,"Early","10¢",13.1123287671233,13,"Adolescents",155
"1003","Hard",0,"correct",0.721,0,43,3,1,"Early","10¢",13.1123287671233,13,"Adolescents",155
"1004","Hard",0,"correct",0.5947,0,44,3,1,"Early","10¢",13.1123287671233,13,"Adolescents",155
"1005","Hard",0,"correct",0.624,0,45,3,1,"Early","10¢",13.1123287671233,13,"Adolescents",155
"1006","Hard",0,"correct",1.1889,0,46,3,1,"Early","10¢",13.1123287671233,13,"Adolescents",155
"1007","Hard",1,"correct",0.9236,0,47,3,1,"Early","10¢",13.1123287671233,13,"Adolescents",155
"1008","Hard",1,"correct",0.5577,0,48,3,1,"Early","10¢",13.1123287671233,13,"Adolescents",155
"1009","Hard",1,"correct",0.9603,0,49,3,1,"Early","10¢",13.1123287671233,13,"Adolescents",155
"1010","Hard",1,"correct",0.7061,0,50,3,1,"Early","10¢",13.1123287671233,13,"Adolescents",155
"1011","Hard",0,"correct",0.6574,0,51,3,1,"Early","10¢",13.1123287671233,13,"Adolescents",155
"1012","Hard",1,"correct",1.1062,0,52,3,1,"Early","10¢",13.1123287671233,13,"Adolescents",155
"1013","Hard",1,"correct",0.7577,0,53,3,1,"Early","10¢",13.1123287671233,13,"Adolescents",155
"1014","Hard",0,"correct",1.1587,0,54,3,1,"Early","10¢",13.1123287671233,13,"Adolescents",155
"1015","Hard",1,"correct",0.8245,0,55,3,1,"Early","10¢",13.1123287671233,13,"Adolescents",155
"1016","Hard",1,"correct",0.6396,0,56,3,1,"Early","10¢",13.1123287671233,13,"Adolescents",155
"1017","Hard",1,"correct",1.1236,0,57,3,1,"Early","10¢",13.1123287671233,13,"Adolescents",155
"1018","Hard",0,"correct",0.7391,0,58,3,1,"Early","10¢",13.1123287671233,13,"Adolescents",155
"1019","Hard",0,"correct",0.9239,0,59,3,1,"Early","10¢",13.1123287671233,13,"Adolescents",155
"1020","Hard",1,"correct",0.8088,0,60,3,1,"Early","10¢",13.1123287671233,13,"Adolescents",155
"1021","Hard",0,"correct",1.1336,0,61,4,1,"Early","1¢",13.1123287671233,13,"Adolescents",155
"1022","Hard",0,"too_slow",NA,1,62,4,NA,"Early","1¢",13.1123287671233,13,"Adolescents",155
"1023","Hard",1,"correct",0.9375,0,63,4,1,"Early","1¢",13.1123287671233,13,"Adolescents",155
"1024","Hard",0,"incorrect",0.7918,0,64,4,0,"Early","1¢",13.1123287671233,13,"Adolescents",155
"1025","Hard",0,"correct",1.419,0,65,4,1,"Early","1¢",13.1123287671233,13,"Adolescents",155
"1026","Hard",0,"correct",1.2149,0,66,4,1,"Early","1¢",13.1123287671233,13,"Adolescents",155
"1027","Hard",1,"correct",0.7936,0,67,4,1,"Early","1¢",13.1123287671233,13,"Adolescents",155
"1028","Hard",1,"correct",0.8571,0,68,4,1,"Early","1¢",13.1123287671233,13,"Adolescents",155
"1029","Hard",0,"correct",0.8915,0,69,4,1,"Early","1¢",13.1123287671233,13,"Adolescents",155
"1030","Hard",0,"correct",0.7067,0,70,4,1,"Early","1¢",13.1123287671233,13,"Adolescents",155
"1031","Hard",0,"correct",0.8477,0,71,4,1,"Early","1¢",13.1123287671233,13,"Adolescents",155
"1032","Hard",1,"correct",0.8562,0,72,4,1,"Early","1¢",13.1123287671233,13,"Adolescents",155
"1033","Hard",0,"correct",0.8733,0,73,4,1,"Early","1¢",13.1123287671233,13,"Adolescents",155
"1034","Hard",1,"correct",0.7269,0,74,4,1,"Early","1¢",13.1123287671233,13,"Adolescents",155
"1035","Hard",0,"correct",0.8053,0,75,4,1,"Early","1¢",13.1123287671233,13,"Adolescents",155
"1036","Hard",1,"correct",0.6574,0,76,4,1,"Early","1¢",13.1123287671233,13,"Adolescents",155
"1037","Hard",1,"correct",0.6753,0,77,4,1,"Early","1¢",13.1123287671233,13,"Adolescents",155
"1038","Hard",1,"correct",0.6567,0,78,4,1,"Early","1¢",13.1123287671233,13,"Adolescents",155
"1039","Hard",1,"correct",0.8871,0,79,4,1,"Early","1¢",13.1123287671233,13,"Adolescents",155
"1040","Hard",1,"correct",0.7099,0,80,4,1,"Early","1¢",13.1123287671233,13,"Adolescents",155
"1041","Easy",0,"correct",0.8581,0,81,5,1,"Middle","1¢",13.1123287671233,13,"Adolescents",155
"1042","Easy",0,"correct",0.6555,0,82,5,1,"Middle","1¢",13.1123287671233,13,"Adolescents",155
"1043","Easy",0,"correct",0.6058,0,83,5,1,"Middle","1¢",13.1123287671233,13,"Adolescents",155
"1044","Easy",0,"correct",0.6062,0,84,5,1,"Middle","1¢",13.1123287671233,13,"Adolescents",155
"1045","Easy",0,"correct",0.5764,0,85,5,1,"Middle","1¢",13.1123287671233,13,"Adolescents",155
"1046","Easy",0,"correct",0.6715,0,86,5,1,"Middle","1¢",13.1123287671233,13,"Adolescents",155
"1047","Easy",0,"correct",0.9501,0,87,5,1,"Middle","1¢",13.1123287671233,13,"Adolescents",155
"1048","Easy",0,"correct",0.8389,0,88,5,1,"Middle","1¢",13.1123287671233,13,"Adolescents",155
"1049","Easy",0,"correct",1.0069,0,89,5,1,"Middle","1¢",13.1123287671233,13,"Adolescents",155
"1050","Easy",1,"correct",1.0395,0,90,5,1,"Middle","1¢",13.1123287671233,13,"Adolescents",155
"1051","Easy",0,"correct",0.732,0,91,5,1,"Middle","1¢",13.1123287671233,13,"Adolescents",155
"1052","Easy",0,"correct",0.6822,0,92,5,1,"Middle","1¢",13.1123287671233,13,"Adolescents",155
"1053","Easy",0,"correct",0.8921,0,93,5,1,"Middle","1¢",13.1123287671233,13,"Adolescents",155
"1054","Easy",0,"incorrect",0.9136,0,94,5,0,"Middle","1¢",13.1123287671233,13,"Adolescents",155
"1055","Easy",1,"correct",1.3557,0,95,5,1,"Middle","1¢",13.1123287671233,13,"Adolescents",155
"1056","Easy",1,"correct",0.7909,0,96,5,1,"Middle","1¢",13.1123287671233,13,"Adolescents",155
"1057","Easy",0,"correct",0.7792,0,97,5,1,"Middle","1¢",13.1123287671233,13,"Adolescents",155
"1058","Easy",0,"correct",1.3671,0,98,5,1,"Middle","1¢",13.1123287671233,13,"Adolescents",155
"1059","Easy",1,"correct",0.6057,0,99,5,1,"Middle","1¢",13.1123287671233,13,"Adolescents",155
"1060","Easy",0,"correct",0.6491,0,100,5,1,"Middle","1¢",13.1123287671233,13,"Adolescents",155
"1061","Easy",0,"correct",0.8772,0,101,6,1,"Middle","10¢",13.1123287671233,13,"Adolescents",155
"1062","Easy",0,"correct",0.5584,0,102,6,1,"Middle","10¢",13.1123287671233,13,"Adolescents",155
"1063","Easy",1,"correct",0.8245,0,103,6,1,"Middle","10¢",13.1123287671233,13,"Adolescents",155
"1064","Easy",1,"correct",0.6539,0,104,6,1,"Middle","10¢",13.1123287671233,13,"Adolescents",155
"1065","Easy",0,"correct",0.6555,0,105,6,1,"Middle","10¢",13.1123287671233,13,"Adolescents",155
"1066","Easy",0,"correct",0.6928,0,106,6,1,"Middle","10¢",13.1123287671233,13,"Adolescents",155
"1067","Easy",1,"correct",0.6695,0,107,6,1,"Middle","10¢",13.1123287671233,13,"Adolescents",155
"1068","Easy",1,"correct",0.6737,0,108,6,1,"Middle","10¢",13.1123287671233,13,"Adolescents",155
"1069","Easy",0,"correct",0.7402,0,109,6,1,"Middle","10¢",13.1123287671233,13,"Adolescents",155
"1070","Easy",0,"correct",0.8224,0,110,6,1,"Middle","10¢",13.1123287671233,13,"Adolescents",155
"1071","Easy",0,"correct",1.0403,0,111,6,1,"Middle","10¢",13.1123287671233,13,"Adolescents",155
"1072","Easy",0,"correct",1.1573,0,112,6,1,"Middle","10¢",13.1123287671233,13,"Adolescents",155
"1073","Easy",0,"correct",0.7898,0,113,6,1,"Middle","10¢",13.1123287671233,13,"Adolescents",155
"1074","Easy",0,"correct",0.6477,0,114,6,1,"Middle","10¢",13.1123287671233,13,"Adolescents",155
"1075","Easy",0,"correct",0.7735,0,115,6,1,"Middle","10¢",13.1123287671233,13,"Adolescents",155
"1076","Easy",0,"correct",0.6404,0,116,6,1,"Middle","10¢",13.1123287671233,13,"Adolescents",155
"1077","Easy",0,"correct",0.6185,0,117,6,1,"Middle","10¢",13.1123287671233,13,"Adolescents",155
"1078","Easy",0,"correct",0.898,0,118,6,1,"Middle","10¢",13.1123287671233,13,"Adolescents",155
"1079","Easy",0,"incorrect",0.5909,0,119,6,0,"Middle","10¢",13.1123287671233,13,"Adolescents",155
"1080","Easy",0,"correct",1.1248,0,120,6,1,"Middle","10¢",13.1123287671233,13,"Adolescents",155
"1081","Hard",0,"too_slow",NA,1,121,7,NA,"Middle","1¢",13.1123287671233,13,"Adolescents",155
"1082","Hard",0,"correct",0.675,0,122,7,1,"Middle","1¢",13.1123287671233,13,"Adolescents",155
"1083","Hard",0,"correct",1.4494,0,123,7,1,"Middle","1¢",13.1123287671233,13,"Adolescents",155
"1084","Hard",0,"correct",0.775,0,124,7,1,"Middle","1¢",13.1123287671233,13,"Adolescents",155
"1085","Hard",1,"correct",0.924,0,125,7,1,"Middle","1¢",13.1123287671233,13,"Adolescents",155
"1086","Hard",1,"correct",0.8226,0,126,7,1,"Middle","1¢",13.1123287671233,13,"Adolescents",155
"1087","Hard",1,"correct",1.074,0,127,7,1,"Middle","1¢",13.1123287671233,13,"Adolescents",155
"1088","Hard",0,"correct",0.9245,0,128,7,1,"Middle","1¢",13.1123287671233,13,"Adolescents",155
"1089","Hard",1,"correct",0.9221,0,129,7,1,"Middle","1¢",13.1123287671233,13,"Adolescents",155
"1090","Hard",0,"correct",0.9254,0,130,7,1,"Middle","1¢",13.1123287671233,13,"Adolescents",155
"1091","Hard",1,"correct",0.8409,0,131,7,1,"Middle","1¢",13.1123287671233,13,"Adolescents",155
"1092","Hard",1,"correct",0.7088,0,132,7,1,"Middle","1¢",13.1123287671233,13,"Adolescents",155
"1093","Hard",0,"correct",0.7401,0,133,7,1,"Middle","1¢",13.1123287671233,13,"Adolescents",155
"1094","Hard",0,"correct",0.6662,0,134,7,1,"Middle","1¢",13.1123287671233,13,"Adolescents",155
"1095","Hard",0,"correct",0.7103,0,135,7,1,"Middle","1¢",13.1123287671233,13,"Adolescents",155
"1096","Hard",1,"correct",0.8063,0,136,7,1,"Middle","1¢",13.1123287671233,13,"Adolescents",155
"1097","Hard",0,"too_slow",NA,1,137,7,NA,"Middle","1¢",13.1123287671233,13,"Adolescents",155
"1098","Hard",1,"correct",0.8069,0,138,7,1,"Middle","1¢",13.1123287671233,13,"Adolescents",155
"1099","Hard",1,"correct",0.7371,0,139,7,1,"Middle","1¢",13.1123287671233,13,"Adolescents",155
"1100","Hard",1,"correct",0.6555,0,140,7,1,"Middle","1¢",13.1123287671233,13,"Adolescents",155
"1101","Hard",0,"correct",0.8088,0,141,8,1,"Middle","10¢",13.1123287671233,13,"Adolescents",155
"1102","Hard",0,"correct",0.7641,0,142,8,1,"Middle","10¢",13.1123287671233,13,"Adolescents",155
"1103","Hard",0,"correct",0.6573,0,143,8,1,"Middle","10¢",13.1123287671233,13,"Adolescents",155
"1104","Hard",1,"correct",0.6904,0,144,8,1,"Middle","10¢",13.1123287671233,13,"Adolescents",155
"1105","Hard",1,"correct",0.9429,0,145,8,1,"Middle","10¢",13.1123287671233,13,"Adolescents",155
"1106","Hard",1,"correct",0.692,0,146,8,1,"Middle","10¢",13.1123287671233,13,"Adolescents",155
"1107","Hard",0,"correct",0.6658,0,147,8,1,"Middle","10¢",13.1123287671233,13,"Adolescents",155
"1108","Hard",0,"correct",0.7747,0,148,8,1,"Middle","10¢",13.1123287671233,13,"Adolescents",155
"1109","Hard",0,"correct",0.6744,0,149,8,1,"Middle","10¢",13.1123287671233,13,"Adolescents",155
"1110","Hard",0,"correct",0.6594,0,150,8,1,"Middle","10¢",13.1123287671233,13,"Adolescents",155
