"","Difficulty","do_switch","resp_type","keyTrial.rt","too_slow_trial","trial_num","block_num","correct","block_third","Incentive","ExactAge","FlooredAge","AgeGroup","participant"
"1","Easy",0,"correct",0.6839,0,1,1,1,"Early","10¢",20.3780821917808,20,"Adults",1
"2","Easy",0,"correct",0.4844,0,2,1,1,"Early","10¢",20.3780821917808,20,"Adults",1
"3","Easy",0,"correct",0.5009,0,3,1,1,"Early","10¢",20.3780821917808,20,"Adults",1
"4","Easy",1,"correct",0.7337,0,4,1,1,"Early","10¢",20.3780821917808,20,"Adults",1
"5","Easy",0,"too_slow",NA,1,5,1,NA,"Early","10¢",20.3780821917808,20,"Adults",1
"6","Easy",0,"correct",0.501,0,6,1,1,"Early","10¢",20.3780821917808,20,"Adults",1
"7","Easy",0,"correct",0.5174,0,7,1,1,"Early","10¢",20.3780821917808,20,"Adults",1
"8","Easy",0,"correct",0.6333,0,8,1,1,"Early","10¢",20.3780821917808,20,"Adults",1
"9","Easy",0,"correct",0.534,0,9,1,1,"Early","10¢",20.3780821917808,20,"Adults",1
"10","Easy",1,"correct",0.6839,0,10,1,1,"Early","10¢",20.3780821917808,20,"Adults",1
"11","Easy",1,"correct",0.4671,0,11,1,1,"Early","10¢",20.3780821917808,20,"Adults",1
"12","Easy",0,"correct",0.5335,0,12,1,1,"Early","10¢",20.3780821917808,20,"Adults",1
"13","Easy",0,"correct",0.4509,0,13,1,1,"Early","10¢",20.3780821917808,20,"Adults",1
"14","Easy",0,"correct",0.45,0,14,1,1,"Early","10¢",20.3780821917808,20,"Adults",1
"15","Easy",0,"correct",0.4673,0,15,1,1,"Early","10¢",20.3780821917808,20,"Adults",1
"16","Easy",1,"correct",0.517,0,16,1,1,"Early","10¢",20.3780821917808,20,"Adults",1
"17","Easy",0,"correct",0.4509,0,17,1,1,"Early","10¢",20.3780821917808,20,"Adults",1
"18","Easy",0,"correct",0.6166,0,18,1,1,"Early","10¢",20.3780821917808,20,"Adults",1
"19","Easy",0,"correct",0.6345,0,19,1,1,"Early","10¢",20.3780821917808,20,"Adults",1
"20","Easy",0,"correct",0.4504,0,20,1,1,"Early","10¢",20.3780821917808,20,"Adults",1
"21","Easy",0,"correct",0.6345,0,21,2,1,"Early","1¢",20.3780821917808,20,"Adults",1
"22","Easy",0,"correct",0.4177,0,22,2,1,"Early","1¢",20.3780821917808,20,"Adults",1
"23","Easy",1,"correct",0.6838,0,23,2,1,"Early","1¢",20.3780821917808,20,"Adults",1
"24","Easy",1,"correct",0.5334,0,24,2,1,"Early","1¢",20.3780821917808,20,"Adults",1
"25","Easy",0,"correct",0.4344,0,25,2,1,"Early","1¢",20.3780821917808,20,"Adults",1
"26","Easy",0,"correct",0.5013,0,26,2,1,"Early","1¢",20.3780821917808,20,"Adults",1
"27","Easy",0,"correct",0.4672,0,27,2,1,"Early","1¢",20.3780821917808,20,"Adults",1
"28","Easy",0,"correct",0.4171,0,28,2,1,"Early","1¢",20.3780821917808,20,"Adults",1
"29","Easy",0,"correct",0.4001,0,29,2,1,"Early","1¢",20.3780821917808,20,"Adults",1
"30","Easy",0,"correct",0.4012,0,30,2,1,"Early","1¢",20.3780821917808,20,"Adults",1
"31","Easy",0,"correct",0.4166,0,31,2,1,"Early","1¢",20.3780821917808,20,"Adults",1
"32","Easy",0,"correct",0.4349,0,32,2,1,"Early","1¢",20.3780821917808,20,"Adults",1
"33","Easy",1,"correct",0.6847,0,33,2,1,"Early","1¢",20.3780821917808,20,"Adults",1
"34","Easy",0,"correct",0.4502,0,34,2,1,"Early","1¢",20.3780821917808,20,"Adults",1
"35","Easy",1,"correct",0.4179,0,35,2,1,"Early","1¢",20.3780821917808,20,"Adults",1
"36","Easy",0,"correct",0.3856,0,36,2,1,"Early","1¢",20.3780821917808,20,"Adults",1
"37","Easy",0,"correct",0.417,0,37,2,1,"Early","1¢",20.3780821917808,20,"Adults",1
"38","Easy",0,"correct",0.4167,0,38,2,1,"Early","1¢",20.3780821917808,20,"Adults",1
"39","Easy",0,"correct",0.4168,0,39,2,1,"Early","1¢",20.3780821917808,20,"Adults",1
"40","Easy",0,"correct",0.4345,0,40,2,1,"Early","1¢",20.3780821917808,20,"Adults",1
"41","Hard",0,"correct",0.5671,0,41,3,1,"Early","10¢",20.3780821917808,20,"Adults",1
"42","Hard",0,"correct",0.4173,0,42,3,1,"Early","10¢",20.3780821917808,20,"Adults",1
"43","Hard",1,"correct",0.5003,0,43,3,1,"Early","10¢",20.3780821917808,20,"Adults",1
"44","Hard",1,"correct",0.518,0,44,3,1,"Early","10¢",20.3780821917808,20,"Adults",1
"45","Hard",0,"correct",0.4183,0,45,3,1,"Early","10¢",20.3780821917808,20,"Adults",1
"46","Hard",1,"correct",0.6514,0,46,3,1,"Early","10¢",20.3780821917808,20,"Adults",1
"47","Hard",1,"correct",0.4516,0,47,3,1,"Early","10¢",20.3780821917808,20,"Adults",1
"48","Hard",0,"correct",0.4342,0,48,3,1,"Early","10¢",20.3780821917808,20,"Adults",1
"49","Hard",0,"correct",0.4002,0,49,3,1,"Early","10¢",20.3780821917808,20,"Adults",1
"50","Hard",0,"correct",0.3833,0,50,3,1,"Early","10¢",20.3780821917808,20,"Adults",1
"51","Hard",0,"correct",0.4168,0,51,3,1,"Early","10¢",20.3780821917808,20,"Adults",1
"52","Hard",1,"correct",0.5003,0,52,3,1,"Early","10¢",20.3780821917808,20,"Adults",1
"53","Hard",1,"correct",0.451,0,53,3,1,"Early","10¢",20.3780821917808,20,"Adults",1
"54","Hard",0,"correct",0.417,0,54,3,1,"Early","10¢",20.3780821917808,20,"Adults",1
"55","Hard",1,"correct",0.8197,0,55,3,1,"Early","10¢",20.3780821917808,20,"Adults",1
"56","Hard",1,"correct",0.4499,0,56,3,1,"Early","10¢",20.3780821917808,20,"Adults",1
"57","Hard",0,"correct",0.4174,0,57,3,1,"Early","10¢",20.3780821917808,20,"Adults",1
"58","Hard",0,"correct",0.4677,0,58,3,1,"Early","10¢",20.3780821917808,20,"Adults",1
"59","Hard",1,"correct",0.5676,0,59,3,1,"Early","10¢",20.3780821917808,20,"Adults",1
"60","Hard",1,"correct",0.5007,0,60,3,1,"Early","10¢",20.3780821917808,20,"Adults",1
"61","Hard",0,"correct",0.5168,0,61,4,1,"Early","1¢",20.3780821917808,20,"Adults",1
"62","Hard",0,"correct",0.4015,0,62,4,1,"Early","1¢",20.3780821917808,20,"Adults",1
"63","Hard",1,"correct",0.5003,0,63,4,1,"Early","1¢",20.3780821917808,20,"Adults",1
"64","Hard",0,"too_slow",NA,1,64,4,NA,"Early","1¢",20.3780821917808,20,"Adults",1
"65","Hard",0,"correct",0.5009,0,65,4,1,"Early","1¢",20.3780821917808,20,"Adults",1
"66","Hard",1,"too_slow",NA,1,66,4,NA,"Early","1¢",20.3780821917808,20,"Adults",1
"67","Hard",1,"correct",0.7177,0,67,4,1,"Early","1¢",20.3780821917808,20,"Adults",1
"68","Hard",1,"correct",0.5333,0,68,4,1,"Early","1¢",20.3780821917808,20,"Adults",1
"69","Hard",0,"correct",0.4501,0,69,4,1,"Early","1¢",20.3780821917808,20,"Adults",1
"70","Hard",0,"correct",0.467,0,70,4,1,"Early","1¢",20.3780821917808,20,"Adults",1
"71","Hard",1,"correct",0.5006,0,71,4,1,"Early","1¢",20.3780821917808,20,"Adults",1
"72","Hard",1,"correct",0.4672,0,72,4,1,"Early","1¢",20.3780821917808,20,"Adults",1
"73","Hard",1,"correct",0.7679,0,73,4,1,"Early","1¢",20.3780821917808,20,"Adults",1
"74","Hard",1,"correct",0.6337,0,74,4,1,"Early","1¢",20.3780821917808,20,"Adults",1
"75","Hard",0,"correct",0.5676,0,75,4,1,"Early","1¢",20.3780821917808,20,"Adults",1
"76","Hard",0,"correct",0.5509,0,76,4,1,"Early","1¢",20.3780821917808,20,"Adults",1
"77","Hard",0,"correct",0.4168,0,77,4,1,"Early","1¢",20.3780821917808,20,"Adults",1
"78","Hard",0,"correct",0.466,0,78,4,1,"Early","1¢",20.3780821917808,20,"Adults",1
"79","Hard",1,"correct",0.7164,0,79,4,1,"Early","1¢",20.3780821917808,20,"Adults",1
"80","Hard",1,"correct",0.517,0,80,4,1,"Early","1¢",20.3780821917808,20,"Adults",1
"81","Easy",0,"correct",0.5673,0,81,5,1,"Middle","1¢",20.3780821917808,20,"Adults",1
"82","Easy",0,"correct",0.3839,0,82,5,1,"Middle","1¢",20.3780821917808,20,"Adults",1
"83","Easy",0,"correct",0.4162,0,83,5,1,"Middle","1¢",20.3780821917808,20,"Adults",1
"84","Easy",0,"correct",0.4001,0,84,5,1,"Middle","1¢",20.3780821917808,20,"Adults",1
"85","Easy",1,"correct",0.7344,0,85,5,1,"Middle","1¢",20.3780821917808,20,"Adults",1
"86","Easy",0,"correct",0.6169,0,86,5,1,"Middle","1¢",20.3780821917808,20,"Adults",1
"87","Easy",0,"correct",0.5678,0,87,5,1,"Middle","1¢",20.3780821917808,20,"Adults",1
"88","Easy",1,"correct",0.4167,0,88,5,1,"Middle","1¢",20.3780821917808,20,"Adults",1
"89","Easy",0,"correct",0.4167,0,89,5,1,"Middle","1¢",20.3780821917808,20,"Adults",1
"90","Easy",0,"correct",0.4514,0,90,5,1,"Middle","1¢",20.3780821917808,20,"Adults",1
"91","Easy",0,"correct",0.4511,0,91,5,1,"Middle","1¢",20.3780821917808,20,"Adults",1
"92","Easy",0,"correct",0.4517,0,92,5,1,"Middle","1¢",20.3780821917808,20,"Adults",1
"93","Easy",0,"correct",0.417,0,93,5,1,"Middle","1¢",20.3780821917808,20,"Adults",1
"94","Easy",0,"correct",0.4511,0,94,5,1,"Middle","1¢",20.3780821917808,20,"Adults",1
"95","Easy",0,"correct",0.4327,0,95,5,1,"Middle","1¢",20.3780821917808,20,"Adults",1
"96","Easy",1,"correct",0.7179,0,96,5,1,"Middle","1¢",20.3780821917808,20,"Adults",1
"97","Easy",0,"correct",0.685,0,97,5,1,"Middle","1¢",20.3780821917808,20,"Adults",1
"98","Easy",0,"correct",0.5017,0,98,5,1,"Middle","1¢",20.3780821917808,20,"Adults",1
"99","Easy",1,"correct",0.6511,0,99,5,1,"Middle","1¢",20.3780821917808,20,"Adults",1
"100","Easy",0,"correct",0.4995,0,100,5,1,"Middle","1¢",20.3780821917808,20,"Adults",1
"101","Easy",0,"correct",0.618,0,101,6,1,"Middle","10¢",20.3780821917808,20,"Adults",1
"102","Easy",0,"correct",0.4338,0,102,6,1,"Middle","10¢",20.3780821917808,20,"Adults",1
"103","Easy",0,"correct",0.4011,0,103,6,1,"Middle","10¢",20.3780821917808,20,"Adults",1
"104","Easy",1,"correct",0.7348,0,104,6,1,"Middle","10¢",20.3780821917808,20,"Adults",1
"105","Easy",0,"correct",0.5347,0,105,6,1,"Middle","10¢",20.3780821917808,20,"Adults",1
"106","Easy",0,"correct",0.568,0,106,6,1,"Middle","10¢",20.3780821917808,20,"Adults",1
"107","Easy",0,"correct",0.4164,0,107,6,1,"Middle","10¢",20.3780821917808,20,"Adults",1
"108","Easy",1,"correct",0.5086,0,108,6,1,"Middle","10¢",20.3780821917808,20,"Adults",1
"109","Easy",0,"correct",0.4182,0,109,6,1,"Middle","10¢",20.3780821917808,20,"Adults",1
"110","Easy",0,"correct",0.5005,0,110,6,1,"Middle","10¢",20.3780821917808,20,"Adults",1
"111","Easy",0,"correct",0.4017,0,111,6,1,"Middle","10¢",20.3780821917808,20,"Adults",1
"112","Easy",0,"correct",0.4172,0,112,6,1,"Middle","10¢",20.3780821917808,20,"Adults",1
"113","Easy",1,"correct",0.7515,0,113,6,1,"Middle","10¢",20.3780821917808,20,"Adults",1
"114","Easy",0,"correct",0.7012,0,114,6,1,"Middle","10¢",20.3780821917808,20,"Adults",1
"115","Easy",1,"correct",0.4843,0,115,6,1,"Middle","10¢",20.3780821917808,20,"Adults",1
"116","Easy",0,"correct",0.4338,0,116,6,1,"Middle","10¢",20.3780821917808,20,"Adults",1
"117","Easy",0,"correct",0.4506,0,117,6,1,"Middle","10¢",20.3780821917808,20,"Adults",1
"118","Easy",0,"correct",0.4176,0,118,6,1,"Middle","10¢",20.3780821917808,20,"Adults",1
"119","Easy",0,"correct",0.3839,0,119,6,1,"Middle","10¢",20.3780821917808,20,"Adults",1
"120","Easy",0,"correct",0.417,0,120,6,1,"Middle","10¢",20.3780821917808,20,"Adults",1
"121","Hard",0,"correct",0.4826,0,121,7,1,"Middle","1¢",20.3780821917808,20,"Adults",1
"122","Hard",1,"correct",0.5837,0,122,7,1,"Middle","1¢",20.3780821917808,20,"Adults",1
"123","Hard",0,"correct",0.4843,0,123,7,1,"Middle","1¢",20.3780821917808,20,"Adults",1
"124","Hard",0,"correct",0.5847,0,124,7,1,"Middle","1¢",20.3780821917808,20,"Adults",1
"125","Hard",1,"correct",0.7515,0,125,7,1,"Middle","1¢",20.3780821917808,20,"Adults",1
"126","Hard",0,"correct",0.485,0,126,7,1,"Middle","1¢",20.3780821917808,20,"Adults",1
"127","Hard",1,"correct",0.7668,0,127,7,1,"Middle","1¢",20.3780821917808,20,"Adults",1
"128","Hard",1,"correct",0.5334,0,128,7,1,"Middle","1¢",20.3780821917808,20,"Adults",1
"129","Hard",1,"correct",0.4681,0,129,7,1,"Middle","1¢",20.3780821917808,20,"Adults",1
"130","Hard",1,"correct",0.4838,0,130,7,1,"Middle","1¢",20.3780821917808,20,"Adults",1
"131","Hard",0,"correct",0.433,0,131,7,1,"Middle","1¢",20.3780821917808,20,"Adults",1
"132","Hard",1,"correct",0.7337,0,132,7,1,"Middle","1¢",20.3780821917808,20,"Adults",1
"133","Hard",0,"correct",0.5507,0,133,7,1,"Middle","1¢",20.3780821917808,20,"Adults",1
"134","Hard",0,"correct",0.5167,0,134,7,1,"Middle","1¢",20.3780821917808,20,"Adults",1
"135","Hard",0,"correct",0.5004,0,135,7,1,"Middle","1¢",20.3780821917808,20,"Adults",1
"136","Hard",1,"correct",0.4493,0,136,7,1,"Middle","1¢",20.3780821917808,20,"Adults",1
"137","Hard",0,"correct",0.4344,0,137,7,1,"Middle","1¢",20.3780821917808,20,"Adults",1
"138","Hard",1,"correct",0.5843,0,138,7,1,"Middle","1¢",20.3780821917808,20,"Adults",1
"139","Hard",0,"correct",0.6342,0,139,7,1,"Middle","1¢",20.3780821917808,20,"Adults",1
"140","Hard",1,"correct",0.7679,0,140,7,1,"Middle","1¢",20.3780821917808,20,"Adults",1
"141","Hard",0,"correct",0.4834,0,141,8,1,"Middle","10¢",20.3780821917808,20,"Adults",1
"142","Hard",0,"correct",0.4178,0,142,8,1,"Middle","10¢",20.3780821917808,20,"Adults",1
"143","Hard",1,"correct",0.7173,0,143,8,1,"Middle","10¢",20.3780821917808,20,"Adults",1
"144","Hard",1,"correct",0.4501,0,144,8,1,"Middle","10¢",20.3780821917808,20,"Adults",1
"145","Hard",0,"correct",0.3688,0,145,8,1,"Middle","10¢",20.3780821917808,20,"Adults",1
"146","Hard",0,"correct",0.3847,0,146,8,1,"Middle","10¢",20.3780821917808,20,"Adults",1
"147","Hard",0,"correct",0.4003,0,147,8,1,"Middle","10¢",20.3780821917808,20,"Adults",1
"148","Hard",1,"correct",0.6008,0,148,8,1,"Middle","10¢",20.3780821917808,20,"Adults",1
"149","Hard",0,"correct",0.6169,0,149,8,1,"Middle","10¢",20.3780821917808,20,"Adults",1
"150","Hard",1,"correct",0.4671,0,150,8,1,"Middle","10¢",20.3780821917808,20,"Adults",1
"151","Hard",1,"correct",0.7338,0,151,8,1,"Middle","10¢",20.3780821917808,20,"Adults",1
"152","Hard",1,"correct",0.5182,0,152,8,1,"Middle","10¢",20.3780821917808,20,"Adults",1
"153","Hard",0,"correct",0.4504,0,153,8,1,"Middle","10¢",20.3780821917808,20,"Adults",1
"154","Hard",0,"correct",0.4342,0,154,8,1,"Middle","10¢",20.3780821917808,20,"Adults",1
"155","Hard",1,"correct",0.7515,0,155,8,1,"Middle","10¢",20.3780821917808,20,"Adults",1
"156","Hard",0,"correct",0.5173,0,156,8,1,"Middle","10¢",20.3780821917808,20,"Adults",1
"157","Hard",0,"correct",0.4684,0,157,8,1,"Middle","10¢",20.3780821917808,20,"Adults",1
"158","Hard",1,"correct",0.4343,0,158,8,1,"Middle","10¢",20.3780821917808,20,"Adults",1
"159","Hard",1,"correct",0.5012,0,159,8,1,"Middle","10¢",20.3780821917808,20,"Adults",1
"160","Hard",1,"correct",0.4498,0,160,8,1,"Middle","10¢",20.3780821917808,20,"Adults",1
"161","Easy",0,"correct",0.5512,0,161,9,1,"Late","10¢",20.3780821917808,20,"Adults",1
"162","Easy",0,"correct",0.3852,0,162,9,1,"Late","10¢",20.3780821917808,20,"Adults",1
"163","Easy",0,"correct",0.3666,0,163,9,1,"Late","10¢",20.3780821917808,20,"Adults",1
"164","Easy",0,"correct",0.4169,0,164,9,1,"Late","10¢",20.3780821917808,20,"Adults",1
"165","Easy",0,"correct",0.3688,0,165,9,1,"Late","10¢",20.3780821917808,20,"Adults",1
"166","Easy",1,"correct",0.4673,0,166,9,1,"Late","10¢",20.3780821917808,20,"Adults",1
"167","Easy",1,"correct",0.6507,0,167,9,1,"Late","10¢",20.3780821917808,20,"Adults",1
"168","Easy",0,"correct",0.4503,0,168,9,1,"Late","10¢",20.3780821917808,20,"Adults",1
"169","Easy",0,"correct",0.4509,0,169,9,1,"Late","10¢",20.3780821917808,20,"Adults",1
"170","Easy",0,"correct",0.4511,0,170,9,1,"Late","10¢",20.3780821917808,20,"Adults",1
"171","Easy",0,"correct",0.4505,0,171,9,1,"Late","10¢",20.3780821917808,20,"Adults",1
"172","Easy",0,"correct",0.4339,0,172,9,1,"Late","10¢",20.3780821917808,20,"Adults",1
"173","Easy",1,"correct",0.5675,0,173,9,1,"Late","10¢",20.3780821917808,20,"Adults",1
"174","Easy",0,"correct",0.7003,0,174,9,1,"Late","10¢",20.3780821917808,20,"Adults",1
"175","Easy",1,"correct",0.4679,0,175,9,1,"Late","10¢",20.3780821917808,20,"Adults",1
"176","Easy",0,"correct",0.468,0,176,9,1,"Late","10¢",20.3780821917808,20,"Adults",1
"177","Easy",0,"correct",0.4342,0,177,9,1,"Late","10¢",20.3780821917808,20,"Adults",1
"178","Easy",0,"correct",0.4168,0,178,9,1,"Late","10¢",20.3780821917808,20,"Adults",1
"179","Easy",0,"correct",0.4503,0,179,9,1,"Late","10¢",20.3780821917808,20,"Adults",1
"180","Easy",0,"correct",0.4344,0,180,9,1,"Late","10¢",20.3780821917808,20,"Adults",1
"181","Easy",0,"correct",0.5338,0,181,10,1,"Late","1¢",20.3780821917808,20,"Adults",1
"182","Easy",0,"correct",0.4165,0,182,10,1,"Late","1¢",20.3780821917808,20,"Adults",1
"183","Easy",0,"correct",0.435,0,183,10,1,"Late","1¢",20.3780821917808,20,"Adults",1
"184","Easy",0,"correct",0.4165,0,184,10,1,"Late","1¢",20.3780821917808,20,"Adults",1
"185","Easy",1,"correct",0.534,0,185,10,1,"Late","1¢",20.3780821917808,20,"Adults",1
"186","Easy",1,"correct",0.4345,0,186,10,1,"Late","1¢",20.3780821917808,20,"Adults",1
"187","Easy",0,"correct",0.4169,0,187,10,1,"Late","1¢",20.3780821917808,20,"Adults",1
"188","Easy",0,"correct",0.4011,0,188,10,1,"Late","1¢",20.3780821917808,20,"Adults",1
"189","Easy",0,"correct",0.4171,0,189,10,1,"Late","1¢",20.3780821917808,20,"Adults",1
"190","Easy",0,"correct",0.4338,0,190,10,1,"Late","1¢",20.3780821917808,20,"Adults",1
"191","Easy",0,"correct",0.4832,0,191,10,1,"Late","1¢",20.3780821917808,20,"Adults",1
"192","Easy",0,"correct",0.4507,0,192,10,1,"Late","1¢",20.3780821917808,20,"Adults",1
"193","Easy",0,"correct",0.4173,0,193,10,1,"Late","1¢",20.3780821917808,20,"Adults",1
"194","Easy",0,"correct",0.3839,0,194,10,1,"Late","1¢",20.3780821917808,20,"Adults",1
"195","Easy",1,"correct",0.7505,0,195,10,1,"Late","1¢",20.3780821917808,20,"Adults",1
"196","Easy",1,"correct",0.4344,0,196,10,1,"Late","1¢",20.3780821917808,20,"Adults",1
"197","Easy",0,"correct",0.4514,0,197,10,1,"Late","1¢",20.3780821917808,20,"Adults",1
"198","Easy",0,"correct",0.4345,0,198,10,1,"Late","1¢",20.3780821917808,20,"Adults",1
"199","Easy",0,"correct",0.4344,0,199,10,1,"Late","1¢",20.3780821917808,20,"Adults",1
"200","Easy",0,"correct",0.4164,0,200,10,1,"Late","1¢",20.3780821917808,20,"Adults",1
"201","Hard",0,"correct",0.5016,0,201,11,1,"Late","10¢",20.3780821917808,20,"Adults",1
"202","Hard",0,"correct",0.4163,0,202,11,1,"Late","10¢",20.3780821917808,20,"Adults",1
"203","Hard",0,"correct",0.4163,0,203,11,1,"Late","10¢",20.3780821917808,20,"Adults",1
"204","Hard",1,"correct",0.6673,0,204,11,1,"Late","10¢",20.3780821917808,20,"Adults",1
"205","Hard",1,"correct",0.4,0,205,11,1,"Late","10¢",20.3780821917808,20,"Adults",1
"206","Hard",1,"correct",0.5005,0,206,11,1,"Late","10¢",20.3780821917808,20,"Adults",1
"207","Hard",0,"correct",0.4326,0,207,11,1,"Late","10¢",20.3780821917808,20,"Adults",1
"208","Hard",0,"correct",0.6843,0,208,11,1,"Late","10¢",20.3780821917808,20,"Adults",1
"209","Hard",1,"correct",0.4848,0,209,11,1,"Late","10¢",20.3780821917808,20,"Adults",1
"210","Hard",1,"correct",0.5339,0,210,11,1,"Late","10¢",20.3780821917808,20,"Adults",1
"211","Hard",0,"correct",0.6511,0,211,11,1,"Late","10¢",20.3780821917808,20,"Adults",1
"212","Hard",1,"correct",0.5515,0,212,11,1,"Late","10¢",20.3780821917808,20,"Adults",1
"213","Hard",0,"correct",0.4671,0,213,11,1,"Late","10¢",20.3780821917808,20,"Adults",1
"214","Hard",1,"correct",0.6174,0,214,11,1,"Late","10¢",20.3780821917808,20,"Adults",1
"215","Hard",0,"correct",0.5001,0,215,11,1,"Late","10¢",20.3780821917808,20,"Adults",1
"216","Hard",1,"correct",0.6171,0,216,11,1,"Late","10¢",20.3780821917808,20,"Adults",1
"217","Hard",0,"correct",0.6012,0,217,11,1,"Late","10¢",20.3780821917808,20,"Adults",1
"218","Hard",1,"correct",0.6505,0,218,11,1,"Late","10¢",20.3780821917808,20,"Adults",1
"219","Hard",1,"correct",0.4665,0,219,11,1,"Late","10¢",20.3780821917808,20,"Adults",1
"220","Hard",0,"correct",0.4687,0,220,11,1,"Late","10¢",20.3780821917808,20,"Adults",1
"221","Hard",0,"correct",0.5002,0,221,12,1,"Late","1¢",20.3780821917808,20,"Adults",1
"222","Hard",0,"correct",0.4506,0,222,12,1,"Late","1¢",20.3780821917808,20,"Adults",1
"223","Hard",1,"correct",0.6334,0,223,12,1,"Late","1¢",20.3780821917808,20,"Adults",1
"224","Hard",1,"correct",0.4337,0,224,12,1,"Late","1¢",20.3780821917808,20,"Adults",1
"225","Hard",1,"correct",0.451,0,225,12,1,"Late","1¢",20.3780821917808,20,"Adults",1
"226","Hard",0,"correct",0.4168,0,226,12,1,"Late","1¢",20.3780821917808,20,"Adults",1
"227","Hard",1,"correct",0.4665,0,227,12,1,"Late","1¢",20.3780821917808,20,"Adults",1
"228","Hard",1,"correct",0.4673,0,228,12,1,"Late","1¢",20.3780821917808,20,"Adults",1
"229","Hard",1,"correct",0.5,0,229,12,1,"Late","1¢",20.3780821917808,20,"Adults",1
"230","Hard",1,"correct",0.485,0,230,12,1,"Late","1¢",20.3780821917808,20,"Adults",1
"231","Hard",0,"correct",0.6178,0,231,12,1,"Late","1¢",20.3780821917808,20,"Adults",1
"232","Hard",0,"correct",0.5514,0,232,12,1,"Late","1¢",20.3780821917808,20,"Adults",1
"233","Hard",1,"correct",0.4679,0,233,12,1,"Late","1¢",20.3780821917808,20,"Adults",1
"234","Hard",0,"correct",0.435,0,234,12,1,"Late","1¢",20.3780821917808,20,"Adults",1
"235","Hard",0,"correct",0.4181,0,235,12,1,"Late","1¢",20.3780821917808,20,"Adults",1
"236","Hard",0,"correct",0.3831,0,236,12,1,"Late","1¢",20.3780821917808,20,"Adults",1
"237","Hard",1,"correct",0.4556,0,237,12,1,"Late","1¢",20.3780821917808,20,"Adults",1
"238","Hard",0,"correct",0.4669,0,238,12,1,"Late","1¢",20.3780821917808,20,"Adults",1
"239","Hard",1,"correct",0.4179,0,239,12,1,"Late","1¢",20.3780821917808,20,"Adults",1
"240","Hard",0,"correct",0.4001,0,240,12,1,"Late","1¢",20.3780821917808,20,"Adults",1
"241","Easy",0,"correct",0.6826,0,1,1,1,"Early","10¢",19.9780821917808,19,"Adults",2
"242","Easy",1,"too_slow",NA,1,2,1,NA,"Early","10¢",19.9780821917808,19,"Adults",2
"243","Easy",0,"correct",0.632,0,3,1,1,"Early","10¢",19.9780821917808,19,"Adults",2
"244","Easy",1,"correct",0.6017,0,4,1,1,"Early","10¢",19.9780821917808,19,"Adults",2
"245","Easy",0,"correct",0.6731,0,5,1,1,"Early","10¢",19.9780821917808,19,"Adults",2
"246","Easy",0,"correct",0.5811,0,6,1,1,"Early","10¢",19.9780821917808,19,"Adults",2
"247","Easy",0,"correct",0.6131,0,7,1,1,"Early","10¢",19.9780821917808,19,"Adults",2
"248","Easy",0,"correct",0.567,0,8,1,1,"Early","10¢",19.9780821917808,19,"Adults",2
"249","Easy",0,"correct",0.4993,0,9,1,1,"Early","10¢",19.9780821917808,19,"Adults",2
"250","Easy",0,"correct",0.5161,0,10,1,1,"Early","10¢",19.9780821917808,19,"Adults",2
"251","Easy",0,"correct",0.4328,0,11,1,1,"Early","10¢",19.9780821917808,19,"Adults",2
"252","Easy",0,"correct",0.5348,0,12,1,1,"Early","10¢",19.9780821917808,19,"Adults",2
"253","Easy",1,"correct",0.8001,0,13,1,1,"Early","10¢",19.9780821917808,19,"Adults",2
"254","Easy",0,"correct",0.5989,0,14,1,1,"Early","10¢",19.9780821917808,19,"Adults",2
"255","Easy",0,"correct",0.7803,0,15,1,1,"Early","10¢",19.9780821917808,19,"Adults",2
"256","Easy",0,"correct",0.6226,0,16,1,1,"Early","10¢",19.9780821917808,19,"Adults",2
"257","Easy",0,"correct",0.5703,0,17,1,1,"Early","10¢",19.9780821917808,19,"Adults",2
"258","Easy",0,"correct",0.7013,0,18,1,1,"Early","10¢",19.9780821917808,19,"Adults",2
"259","Easy",0,"correct",0.5701,0,19,1,1,"Early","10¢",19.9780821917808,19,"Adults",2
"260","Easy",1,"correct",0.4812,0,20,1,1,"Early","10¢",19.9780821917808,19,"Adults",2
"261","Easy",0,"correct",0.7054,0,21,2,1,"Early","1¢",19.9780821917808,19,"Adults",2
"262","Easy",0,"correct",0.4671,0,22,2,1,"Early","1¢",19.9780821917808,19,"Adults",2
"263","Easy",0,"correct",0.5178,0,23,2,1,"Early","1¢",19.9780821917808,19,"Adults",2
"264","Easy",0,"correct",0.5046,0,24,2,1,"Early","1¢",19.9780821917808,19,"Adults",2
"265","Easy",1,"correct",0.6663,0,25,2,1,"Early","1¢",19.9780821917808,19,"Adults",2
"266","Easy",1,"correct",0.505,0,26,2,1,"Early","1¢",19.9780821917808,19,"Adults",2
"267","Easy",1,"correct",0.6166,0,27,2,1,"Early","1¢",19.9780821917808,19,"Adults",2
"268","Easy",0,"correct",0.5639,0,28,2,1,"Early","1¢",19.9780821917808,19,"Adults",2
"269","Easy",0,"correct",0.6239,0,29,2,1,"Early","1¢",19.9780821917808,19,"Adults",2
"270","Easy",0,"correct",0.5434,0,30,2,1,"Early","1¢",19.9780821917808,19,"Adults",2
"271","Easy",1,"correct",0.7669,0,31,2,1,"Early","1¢",19.9780821917808,19,"Adults",2
"272","Easy",0,"correct",0.5378,0,32,2,1,"Early","1¢",19.9780821917808,19,"Adults",2
"273","Easy",0,"correct",0.4579,0,33,2,1,"Early","1¢",19.9780821917808,19,"Adults",2
"274","Easy",0,"correct",0.6013,0,34,2,1,"Early","1¢",19.9780821917808,19,"Adults",2
"275","Easy",0,"correct",0.5672,0,35,2,1,"Early","1¢",19.9780821917808,19,"Adults",2
"276","Easy",0,"correct",0.5027,0,36,2,1,"Early","1¢",19.9780821917808,19,"Adults",2
"277","Easy",0,"correct",0.4671,0,37,2,1,"Early","1¢",19.9780821917808,19,"Adults",2
"278","Easy",0,"correct",0.5338,0,38,2,1,"Early","1¢",19.9780821917808,19,"Adults",2
"279","Easy",0,"correct",0.459,0,39,2,1,"Early","1¢",19.9780821917808,19,"Adults",2
"280","Easy",0,"correct",0.6347,0,40,2,1,"Early","1¢",19.9780821917808,19,"Adults",2
"281","Hard",0,"correct",0.7201,0,41,3,1,"Early","10¢",19.9780821917808,19,"Adults",2
"282","Hard",0,"correct",0.5166,0,42,3,1,"Early","10¢",19.9780821917808,19,"Adults",2
"283","Hard",1,"correct",0.8178,0,43,3,1,"Early","10¢",19.9780821917808,19,"Adults",2
"284","Hard",1,"correct",0.4739,0,44,3,1,"Early","10¢",19.9780821917808,19,"Adults",2
"285","Hard",0,"correct",0.5319,0,45,3,1,"Early","10¢",19.9780821917808,19,"Adults",2
"286","Hard",0,"correct",0.451,0,46,3,1,"Early","10¢",19.9780821917808,19,"Adults",2
"287","Hard",1,"correct",0.6677,0,47,3,1,"Early","10¢",19.9780821917808,19,"Adults",2
"288","Hard",0,"correct",0.5348,0,48,3,1,"Early","10¢",19.9780821917808,19,"Adults",2
"289","Hard",1,"correct",0.4372,0,49,3,1,"Early","10¢",19.9780821917808,19,"Adults",2
"290","Hard",1,"correct",0.6023,0,50,3,1,"Early","10¢",19.9780821917808,19,"Adults",2
"291","Hard",0,"correct",0.6013,0,51,3,1,"Early","10¢",19.9780821917808,19,"Adults",2
"292","Hard",0,"correct",0.585,0,52,3,1,"Early","10¢",19.9780821917808,19,"Adults",2
"293","Hard",1,"correct",0.6862,0,53,3,1,"Early","10¢",19.9780821917808,19,"Adults",2
"294","Hard",1,"correct",0.572,0,54,3,1,"Early","10¢",19.9780821917808,19,"Adults",2
"295","Hard",1,"correct",0.4659,0,55,3,1,"Early","10¢",19.9780821917808,19,"Adults",2
"296","Hard",0,"correct",0.5963,0,56,3,1,"Early","10¢",19.9780821917808,19,"Adults",2
"297","Hard",0,"correct",0.4894,0,57,3,1,"Early","10¢",19.9780821917808,19,"Adults",2
"298","Hard",1,"correct",0.4863,0,58,3,1,"Early","10¢",19.9780821917808,19,"Adults",2
"299","Hard",0,"correct",0.6388,0,59,3,1,"Early","10¢",19.9780821917808,19,"Adults",2
"300","Hard",1,"correct",0.4889,0,60,3,1,"Early","10¢",19.9780821917808,19,"Adults",2
"301","Hard",0,"correct",0.5395,0,61,4,1,"Early","1¢",19.9780821917808,19,"Adults",2
"302","Hard",1,"correct",0.6013,0,62,4,1,"Early","1¢",19.9780821917808,19,"Adults",2
"303","Hard",0,"correct",0.5076,0,63,4,1,"Early","1¢",19.9780821917808,19,"Adults",2
"304","Hard",1,"correct",0.4403,0,64,4,1,"Early","1¢",19.9780821917808,19,"Adults",2
"305","Hard",0,"correct",0.4671,0,65,4,1,"Early","1¢",19.9780821917808,19,"Adults",2
"306","Hard",1,"correct",0.5359,0,66,4,1,"Early","1¢",19.9780821917808,19,"Adults",2
"307","Hard",1,"correct",0.4686,0,67,4,1,"Early","1¢",19.9780821917808,19,"Adults",2
"308","Hard",0,"correct",0.4196,0,68,4,1,"Early","1¢",19.9780821917808,19,"Adults",2
"309","Hard",1,"correct",0.5678,0,69,4,1,"Early","1¢",19.9780821917808,19,"Adults",2
"310","Hard",0,"correct",0.4862,0,70,4,1,"Early","1¢",19.9780821917808,19,"Adults",2
"311","Hard",1,"correct",0.453,0,71,4,1,"Early","1¢",19.9780821917808,19,"Adults",2
"312","Hard",0,"correct",0.4845,0,72,4,1,"Early","1¢",19.9780821917808,19,"Adults",2
"313","Hard",0,"correct",0.4515,0,73,4,1,"Early","1¢",19.9780821917808,19,"Adults",2
"314","Hard",1,"correct",0.6009,0,74,4,1,"Early","1¢",19.9780821917808,19,"Adults",2
"315","Hard",1,"correct",0.5024,0,75,4,1,"Early","1¢",19.9780821917808,19,"Adults",2
"316","Hard",0,"correct",0.4524,0,76,4,1,"Early","1¢",19.9780821917808,19,"Adults",2
"317","Hard",0,"correct",0.465,0,77,4,1,"Early","1¢",19.9780821917808,19,"Adults",2
"318","Hard",0,"correct",0.4185,0,78,4,1,"Early","1¢",19.9780821917808,19,"Adults",2
"319","Hard",1,"correct",0.5374,0,79,4,1,"Early","1¢",19.9780821917808,19,"Adults",2
"320","Hard",1,"correct",0.4604,0,80,4,1,"Early","1¢",19.9780821917808,19,"Adults",2
"321","Easy",0,"correct",0.588,0,81,5,1,"Middle","1¢",19.9780821917808,19,"Adults",2
"322","Easy",1,"correct",0.6981,0,82,5,1,"Middle","1¢",19.9780821917808,19,"Adults",2
"323","Easy",0,"correct",0.536,0,83,5,1,"Middle","1¢",19.9780821917808,19,"Adults",2
"324","Easy",0,"correct",0.5698,0,84,5,1,"Middle","1¢",19.9780821917808,19,"Adults",2
"325","Easy",1,"correct",0.424,0,85,5,1,"Middle","1¢",19.9780821917808,19,"Adults",2
"326","Easy",0,"correct",0.6823,0,86,5,1,"Middle","1¢",19.9780821917808,19,"Adults",2
"327","Easy",0,"correct",0.4323,0,87,5,1,"Middle","1¢",19.9780821917808,19,"Adults",2
"328","Easy",0,"correct",0.4496,0,88,5,1,"Middle","1¢",19.9780821917808,19,"Adults",2
"329","Easy",0,"correct",0.4399,0,89,5,1,"Middle","1¢",19.9780821917808,19,"Adults",2
"330","Easy",0,"correct",0.4008,0,90,5,1,"Middle","1¢",19.9780821917808,19,"Adults",2
"331","Easy",1,"correct",0.6666,0,91,5,1,"Middle","1¢",19.9780821917808,19,"Adults",2
"332","Easy",0,"correct",0.4717,0,92,5,1,"Middle","1¢",19.9780821917808,19,"Adults",2
"333","Easy",1,"correct",0.438,0,93,5,1,"Middle","1¢",19.9780821917808,19,"Adults",2
"334","Easy",0,"correct",0.5369,0,94,5,1,"Middle","1¢",19.9780821917808,19,"Adults",2
"335","Easy",0,"correct",0.4698,0,95,5,1,"Middle","1¢",19.9780821917808,19,"Adults",2
"336","Easy",0,"correct",0.4633,0,96,5,1,"Middle","1¢",19.9780821917808,19,"Adults",2
"337","Easy",0,"correct",0.4846,0,97,5,1,"Middle","1¢",19.9780821917808,19,"Adults",2
"338","Easy",0,"correct",0.4136,0,98,5,1,"Middle","1¢",19.9780821917808,19,"Adults",2
"339","Easy",0,"correct",0.536,0,99,5,1,"Middle","1¢",19.9780821917808,19,"Adults",2
"340","Easy",0,"correct",0.4511,0,100,5,1,"Middle","1¢",19.9780821917808,19,"Adults",2
"341","Easy",0,"correct",0.6732,0,101,6,1,"Middle","10¢",19.9780821917808,19,"Adults",2
"342","Easy",0,"correct",0.4501,0,102,6,1,"Middle","10¢",19.9780821917808,19,"Adults",2
"343","Easy",0,"correct",0.4629,0,103,6,1,"Middle","10¢",19.9780821917808,19,"Adults",2
"344","Easy",0,"correct",0.4675,0,104,6,1,"Middle","10¢",19.9780821917808,19,"Adults",2
"345","Easy",0,"correct",0.7205,0,105,6,1,"Middle","10¢",19.9780821917808,19,"Adults",2
"346","Easy",0,"correct",0.4662,0,106,6,1,"Middle","10¢",19.9780821917808,19,"Adults",2
"347","Easy",0,"correct",0.5187,0,107,6,1,"Middle","10¢",19.9780821917808,19,"Adults",2
"348","Easy",0,"correct",0.4008,0,108,6,1,"Middle","10¢",19.9780821917808,19,"Adults",2
"349","Easy",0,"correct",0.5028,0,109,6,1,"Middle","10¢",19.9780821917808,19,"Adults",2
"350","Easy",1,"correct",0.7053,0,110,6,1,"Middle","10¢",19.9780821917808,19,"Adults",2
"351","Easy",1,"correct",0.4767,0,111,6,1,"Middle","10¢",19.9780821917808,19,"Adults",2
"352","Easy",0,"correct",0.502,0,112,6,1,"Middle","10¢",19.9780821917808,19,"Adults",2
"353","Easy",1,"correct",0.6216,0,113,6,1,"Middle","10¢",19.9780821917808,19,"Adults",2
"354","Easy",0,"incorrect",0.6101,0,114,6,0,"Middle","10¢",19.9780821917808,19,"Adults",2
"355","Easy",0,"correct",0.6483,0,115,6,1,"Middle","10¢",19.9780821917808,19,"Adults",2
"356","Easy",0,"correct",0.7197,0,116,6,1,"Middle","10¢",19.9780821917808,19,"Adults",2
"357","Easy",0,"correct",0.6724,0,117,6,1,"Middle","10¢",19.9780821917808,19,"Adults",2
"358","Easy",1,"correct",0.5019,0,118,6,1,"Middle","10¢",19.9780821917808,19,"Adults",2
"359","Easy",0,"correct",0.4371,0,119,6,1,"Middle","10¢",19.9780821917808,19,"Adults",2
"360","Easy",0,"correct",0.5005,0,120,6,1,"Middle","10¢",19.9780821917808,19,"Adults",2
"361","Hard",0,"correct",0.6295,0,121,7,1,"Middle","1¢",19.9780821917808,19,"Adults",2
"362","Hard",0,"correct",0.4507,0,122,7,1,"Middle","1¢",19.9780821917808,19,"Adults",2
"363","Hard",0,"correct",0.4659,0,123,7,1,"Middle","1¢",19.9780821917808,19,"Adults",2
"364","Hard",1,"correct",0.5707,0,124,7,1,"Middle","1¢",19.9780821917808,19,"Adults",2
"365","Hard",0,"correct",0.504,0,125,7,1,"Middle","1¢",19.9780821917808,19,"Adults",2
"366","Hard",0,"correct",0.6686,0,126,7,1,"Middle","1¢",19.9780821917808,19,"Adults",2
"367","Hard",1,"correct",0.4874,0,127,7,1,"Middle","1¢",19.9780821917808,19,"Adults",2
"368","Hard",1,"correct",0.5042,0,128,7,1,"Middle","1¢",19.9780821917808,19,"Adults",2
"369","Hard",0,"correct",0.4645,0,129,7,1,"Middle","1¢",19.9780821917808,19,"Adults",2
"370","Hard",0,"correct",0.5885,0,130,7,1,"Middle","1¢",19.9780821917808,19,"Adults",2
"371","Hard",0,"correct",0.4685,0,131,7,1,"Middle","1¢",19.9780821917808,19,"Adults",2
"372","Hard",1,"correct",0.552,0,132,7,1,"Middle","1¢",19.9780821917808,19,"Adults",2
"373","Hard",1,"correct",0.675,0,133,7,1,"Middle","1¢",19.9780821917808,19,"Adults",2
"374","Hard",1,"correct",0.6646,0,134,7,1,"Middle","1¢",19.9780821917808,19,"Adults",2
"375","Hard",0,"correct",0.4883,0,135,7,1,"Middle","1¢",19.9780821917808,19,"Adults",2
"376","Hard",1,"correct",0.7198,0,136,7,1,"Middle","1¢",19.9780821917808,19,"Adults",2
"377","Hard",1,"correct",0.5917,0,137,7,1,"Middle","1¢",19.9780821917808,19,"Adults",2
"378","Hard",1,"correct",0.5523,0,138,7,1,"Middle","1¢",19.9780821917808,19,"Adults",2
"379","Hard",0,"correct",0.5423,0,139,7,1,"Middle","1¢",19.9780821917808,19,"Adults",2
"380","Hard",1,"correct",0.5277,0,140,7,1,"Middle","1¢",19.9780821917808,19,"Adults",2
"381","Hard",0,"correct",0.5409,0,141,8,1,"Middle","10¢",19.9780821917808,19,"Adults",2
"382","Hard",1,"correct",0.5535,0,142,8,1,"Middle","10¢",19.9780821917808,19,"Adults",2
"383","Hard",0,"correct",0.467,0,143,8,1,"Middle","10¢",19.9780821917808,19,"Adults",2
"384","Hard",1,"correct",0.5072,0,144,8,1,"Middle","10¢",19.9780821917808,19,"Adults",2
"385","Hard",1,"correct",0.6358,0,145,8,1,"Middle","10¢",19.9780821917808,19,"Adults",2
"386","Hard",0,"correct",0.4873,0,146,8,1,"Middle","10¢",19.9780821917808,19,"Adults",2
"387","Hard",1,"correct",0.4677,0,147,8,1,"Middle","10¢",19.9780821917808,19,"Adults",2
"388","Hard",1,"correct",0.5854,0,148,8,1,"Middle","10¢",19.9780821917808,19,"Adults",2
"389","Hard",1,"correct",0.59,0,149,8,1,"Middle","10¢",19.9780821917808,19,"Adults",2
"390","Hard",0,"correct",0.4414,0,150,8,1,"Middle","10¢",19.9780821917808,19,"Adults",2
"391","Hard",0,"correct",0.501,0,151,8,1,"Middle","10¢",19.9780821917808,19,"Adults",2
"392","Hard",1,"correct",0.5893,0,152,8,1,"Middle","10¢",19.9780821917808,19,"Adults",2
"393","Hard",1,"correct",0.4698,0,153,8,1,"Middle","10¢",19.9780821917808,19,"Adults",2
"394","Hard",1,"correct",0.535,0,154,8,1,"Middle","10¢",19.9780821917808,19,"Adults",2
"395","Hard",0,"correct",0.535,0,155,8,1,"Middle","10¢",19.9780821917808,19,"Adults",2
"396","Hard",0,"correct",0.5684,0,156,8,1,"Middle","10¢",19.9780821917808,19,"Adults",2
"397","Hard",0,"correct",0.6536,0,157,8,1,"Middle","10¢",19.9780821917808,19,"Adults",2
"398","Hard",1,"correct",0.474,0,158,8,1,"Middle","10¢",19.9780821917808,19,"Adults",2
"399","Hard",0,"correct",0.6368,0,159,8,1,"Middle","10¢",19.9780821917808,19,"Adults",2
"400","Hard",0,"correct",0.5521,0,160,8,1,"Middle","10¢",19.9780821917808,19,"Adults",2
"401","Easy",0,"correct",0.6884,0,161,9,1,"Late","10¢",19.9780821917808,19,"Adults",2
"402","Easy",0,"correct",0.5,0,162,9,1,"Late","10¢",19.9780821917808,19,"Adults",2
"403","Easy",0,"correct",0.5729,0,163,9,1,"Late","10¢",19.9780821917808,19,"Adults",2
"404","Easy",1,"correct",0.5676,0,164,9,1,"Late","10¢",19.9780821917808,19,"Adults",2
"405","Easy",0,"correct",0.6187,0,165,9,1,"Late","10¢",19.9780821917808,19,"Adults",2
"406","Easy",1,"correct",0.5755,0,166,9,1,"Late","10¢",19.9780821917808,19,"Adults",2
"407","Easy",0,"correct",0.5866,0,167,9,1,"Late","10¢",19.9780821917808,19,"Adults",2
"408","Easy",0,"correct",0.4872,0,168,9,1,"Late","10¢",19.9780821917808,19,"Adults",2
"409","Easy",0,"correct",0.6378,0,169,9,1,"Late","10¢",19.9780821917808,19,"Adults",2
"410","Easy",0,"correct",0.4897,0,170,9,1,"Late","10¢",19.9780821917808,19,"Adults",2
"411","Easy",0,"correct",0.5228,0,171,9,1,"Late","10¢",19.9780821917808,19,"Adults",2
"412","Easy",0,"correct",0.518,0,172,9,1,"Late","10¢",19.9780821917808,19,"Adults",2
"413","Easy",0,"correct",0.4699,0,173,9,1,"Late","10¢",19.9780821917808,19,"Adults",2
"414","Easy",1,"correct",0.7369,0,174,9,1,"Late","10¢",19.9780821917808,19,"Adults",2
"415","Easy",0,"correct",0.616,0,175,9,1,"Late","10¢",19.9780821917808,19,"Adults",2
"416","Easy",0,"correct",0.5153,0,176,9,1,"Late","10¢",19.9780821917808,19,"Adults",2
"417","Easy",1,"correct",0.5018,0,177,9,1,"Late","10¢",19.9780821917808,19,"Adults",2
"418","Easy",0,"correct",0.5073,0,178,9,1,"Late","10¢",19.9780821917808,19,"Adults",2
"419","Easy",0,"correct",0.5062,0,179,9,1,"Late","10¢",19.9780821917808,19,"Adults",2
"420","Easy",0,"correct",0.5676,0,180,9,1,"Late","10¢",19.9780821917808,19,"Adults",2
"421","Easy",0,"correct",0.5512,0,181,10,1,"Late","1¢",19.9780821917808,19,"Adults",2
"422","Easy",0,"correct",0.6222,0,182,10,1,"Late","1¢",19.9780821917808,19,"Adults",2
"423","Easy",0,"correct",0.5033,0,183,10,1,"Late","1¢",19.9780821917808,19,"Adults",2
"424","Easy",0,"correct",0.486,0,184,10,1,"Late","1¢",19.9780821917808,19,"Adults",2
"425","Easy",0,"correct",0.4575,0,185,10,1,"Late","1¢",19.9780821917808,19,"Adults",2
"426","Easy",0,"correct",0.4375,0,186,10,1,"Late","1¢",19.9780821917808,19,"Adults",2
"427","Easy",1,"correct",0.5839,0,187,10,1,"Late","1¢",19.9780821917808,19,"Adults",2
"428","Easy",0,"correct",0.5589,0,188,10,1,"Late","1¢",19.9780821917808,19,"Adults",2
"429","Easy",0,"correct",0.6178,0,189,10,1,"Late","1¢",19.9780821917808,19,"Adults",2
"430","Easy",0,"correct",0.6029,0,190,10,1,"Late","1¢",19.9780821917808,19,"Adults",2
"431","Easy",0,"correct",0.7191,0,191,10,1,"Late","1¢",19.9780821917808,19,"Adults",2
"432","Easy",0,"correct",0.5039,0,192,10,1,"Late","1¢",19.9780821917808,19,"Adults",2
"433","Easy",0,"correct",0.4322,0,193,10,1,"Late","1¢",19.9780821917808,19,"Adults",2
"434","Easy",1,"correct",0.4364,0,194,10,1,"Late","1¢",19.9780821917808,19,"Adults",2
"435","Easy",1,"correct",0.5504,0,195,10,1,"Late","1¢",19.9780821917808,19,"Adults",2
"436","Easy",1,"correct",0.4535,0,196,10,1,"Late","1¢",19.9780821917808,19,"Adults",2
"437","Easy",0,"correct",0.6063,0,197,10,1,"Late","1¢",19.9780821917808,19,"Adults",2
"438","Easy",0,"correct",0.5043,0,198,10,1,"Late","1¢",19.9780821917808,19,"Adults",2
"439","Easy",0,"correct",0.4524,0,199,10,1,"Late","1¢",19.9780821917808,19,"Adults",2
"440","Easy",0,"correct",0.622,0,200,10,1,"Late","1¢",19.9780821917808,19,"Adults",2
"441","Hard",0,"correct",0.5865,0,201,11,1,"Late","10¢",19.9780821917808,19,"Adults",2
"442","Hard",1,"correct",0.5816,0,202,11,1,"Late","10¢",19.9780821917808,19,"Adults",2
"443","Hard",1,"correct",0.5229,0,203,11,1,"Late","10¢",19.9780821917808,19,"Adults",2
"444","Hard",0,"correct",0.5477,0,204,11,1,"Late","10¢",19.9780821917808,19,"Adults",2
"445","Hard",0,"too_slow",NA,1,205,11,NA,"Late","10¢",19.9780821917808,19,"Adults",2
"446","Hard",1,"too_slow",NA,1,206,11,NA,"Late","10¢",19.9780821917808,19,"Adults",2
"447","Hard",1,"correct",0.4749,0,207,11,1,"Late","10¢",19.9780821917808,19,"Adults",2
"448","Hard",0,"correct",0.5041,0,208,11,1,"Late","10¢",19.9780821917808,19,"Adults",2
"449","Hard",1,"correct",0.5347,0,209,11,1,"Late","10¢",19.9780821917808,19,"Adults",2
"450","Hard",0,"correct",0.5375,0,210,11,1,"Late","10¢",19.9780821917808,19,"Adults",2
"451","Hard",0,"correct",0.5392,0,211,11,1,"Late","10¢",19.9780821917808,19,"Adults",2
"452","Hard",1,"correct",0.4903,0,212,11,1,"Late","10¢",19.9780821917808,19,"Adults",2
"453","Hard",1,"correct",0.5599,0,213,11,1,"Late","10¢",19.9780821917808,19,"Adults",2
"454","Hard",0,"correct",0.5922,0,214,11,1,"Late","10¢",19.9780821917808,19,"Adults",2
"455","Hard",1,"correct",0.4817,0,215,11,1,"Late","10¢",19.9780821917808,19,"Adults",2
"456","Hard",0,"correct",0.4702,0,216,11,1,"Late","10¢",19.9780821917808,19,"Adults",2
"457","Hard",0,"correct",0.6348,0,217,11,1,"Late","10¢",19.9780821917808,19,"Adults",2
"458","Hard",1,"correct",0.5594,0,218,11,1,"Late","10¢",19.9780821917808,19,"Adults",2
"459","Hard",1,"correct",0.453,0,219,11,1,"Late","10¢",19.9780821917808,19,"Adults",2
"460","Hard",0,"correct",0.438,0,220,11,1,"Late","10¢",19.9780821917808,19,"Adults",2
"461","Hard",0,"correct",0.6035,0,221,12,1,"Late","1¢",19.9780821917808,19,"Adults",2
"462","Hard",0,"correct",0.4331,0,222,12,1,"Late","1¢",19.9780821917808,19,"Adults",2
"463","Hard",1,"correct",0.8216,0,223,12,1,"Late","1¢",19.9780821917808,19,"Adults",2
"464","Hard",0,"correct",0.466,0,224,12,1,"Late","1¢",19.9780821917808,19,"Adults",2
"465","Hard",0,"correct",0.7211,0,225,12,1,"Late","1¢",19.9780821917808,19,"Adults",2
"466","Hard",1,"correct",0.4652,0,226,12,1,"Late","1¢",19.9780821917808,19,"Adults",2
"467","Hard",0,"correct",0.4678,0,227,12,1,"Late","1¢",19.9780821917808,19,"Adults",2
"468","Hard",0,"correct",0.4504,0,228,12,1,"Late","1¢",19.9780821917808,19,"Adults",2
"469","Hard",0,"correct",0.4076,0,229,12,1,"Late","1¢",19.9780821917808,19,"Adults",2
"470","Hard",0,"correct",0.3828,0,230,12,1,"Late","1¢",19.9780821917808,19,"Adults",2
"471","Hard",1,"correct",0.6187,0,231,12,1,"Late","1¢",19.9780821917808,19,"Adults",2
"472","Hard",1,"correct",0.4594,0,232,12,1,"Late","1¢",19.9780821917808,19,"Adults",2
"473","Hard",1,"correct",0.6558,0,233,12,1,"Late","1¢",19.9780821917808,19,"Adults",2
"474","Hard",1,"correct",0.4236,0,234,12,1,"Late","1¢",19.9780821917808,19,"Adults",2
"475","Hard",0,"correct",0.5032,0,235,12,1,"Late","1¢",19.9780821917808,19,"Adults",2
"476","Hard",1,"correct",0.5211,0,236,12,1,"Late","1¢",19.9780821917808,19,"Adults",2
"477","Hard",0,"correct",0.506,0,237,12,1,"Late","1¢",19.9780821917808,19,"Adults",2
"478","Hard",1,"correct",0.5539,0,238,12,1,"Late","1¢",19.9780821917808,19,"Adults",2
"479","Hard",1,"correct",0.6198,0,239,12,1,"Late","1¢",19.9780821917808,19,"Adults",2
"480","Hard",1,"correct",0.5028,0,240,12,1,"Late","1¢",19.9780821917808,19,"Adults",2
"481","Easy",0,"correct",0.6703,0,1,1,1,"Early","10¢",14.7506849315069,14,"Adolescents",3
"482","Easy",0,"correct",0.5108,0,2,1,1,"Early","10¢",14.7506849315069,14,"Adolescents",3
"483","Easy",0,"correct",0.6852,0,3,1,1,"Early","10¢",14.7506849315069,14,"Adolescents",3
"484","Easy",0,"correct",0.413,0,4,1,1,"Early","10¢",14.7506849315069,14,"Adolescents",3
"485","Easy",0,"correct",0.4493,0,5,1,1,"Early","10¢",14.7506849315069,14,"Adolescents",3
"486","Easy",0,"correct",0.5173,0,6,1,1,"Early","10¢",14.7506849315069,14,"Adolescents",3
"487","Easy",0,"correct",0.5801,0,7,1,1,"Early","10¢",14.7506849315069,14,"Adolescents",3
"488","Easy",0,"correct",0.3952,0,8,1,1,"Early","10¢",14.7506849315069,14,"Adolescents",3
"489","Easy",1,"too_slow",NA,1,9,1,NA,"Early","10¢",14.7506849315069,14,"Adolescents",3
"490","Easy",0,"correct",0.6032,0,10,1,1,"Early","10¢",14.7506849315069,14,"Adolescents",3
"491","Easy",0,"correct",0.6955,0,11,1,1,"Early","10¢",14.7506849315069,14,"Adolescents",3
"492","Easy",1,"correct",0.5046,0,12,1,1,"Early","10¢",14.7506849315069,14,"Adolescents",3
"493","Easy",1,"incorrect",0.6343,0,13,1,0,"Early","10¢",14.7506849315069,14,"Adolescents",3
"494","Easy",0,"correct",0.6414,0,14,1,1,"Early","10¢",14.7506849315069,14,"Adolescents",3
"495","Easy",1,"correct",0.6182,0,15,1,1,"Early","10¢",14.7506849315069,14,"Adolescents",3
"496","Easy",0,"correct",0.5708,0,16,1,1,"Early","10¢",14.7506849315069,14,"Adolescents",3
"497","Easy",0,"correct",0.6347,0,17,1,1,"Early","10¢",14.7506849315069,14,"Adolescents",3
"498","Easy",0,"correct",0.5935,0,18,1,1,"Early","10¢",14.7506849315069,14,"Adolescents",3
"499","Easy",0,"correct",0.5292,0,19,1,1,"Early","10¢",14.7506849315069,14,"Adolescents",3
"500","Easy",0,"correct",0.4533,0,20,1,1,"Early","10¢",14.7506849315069,14,"Adolescents",3
"501","Easy",0,"correct",0.6991,0,21,2,1,"Early","1¢",14.7506849315069,14,"Adolescents",3
"502","Easy",0,"correct",0.6938,0,22,2,1,"Early","1¢",14.7506849315069,14,"Adolescents",3
"503","Easy",0,"correct",0.5165,0,23,2,1,"Early","1¢",14.7506849315069,14,"Adolescents",3
"504","Easy",0,"correct",0.4044,0,24,2,1,"Early","1¢",14.7506849315069,14,"Adolescents",3
"505","Easy",0,"correct",0.575,0,25,2,1,"Early","1¢",14.7506849315069,14,"Adolescents",3
"506","Easy",0,"correct",0.4625,0,26,2,1,"Early","1¢",14.7506849315069,14,"Adolescents",3
"507","Easy",0,"correct",0.3937,0,27,2,1,"Early","1¢",14.7506849315069,14,"Adolescents",3
"508","Easy",0,"correct",0.3722,0,28,2,1,"Early","1¢",14.7506849315069,14,"Adolescents",3
"509","Easy",1,"correct",0.6841,0,29,2,1,"Early","1¢",14.7506849315069,14,"Adolescents",3
"510","Easy",0,"correct",0.6808,0,30,2,1,"Early","1¢",14.7506849315069,14,"Adolescents",3
"511","Easy",0,"correct",0.869,0,31,2,1,"Early","1¢",14.7506849315069,14,"Adolescents",3
"512","Easy",0,"correct",0.6214,0,32,2,1,"Early","1¢",14.7506849315069,14,"Adolescents",3
"513","Easy",0,"correct",0.6709,0,33,2,1,"Early","1¢",14.7506849315069,14,"Adolescents",3
"514","Easy",1,"correct",0.7093,0,34,2,1,"Early","1¢",14.7506849315069,14,"Adolescents",3
"515","Easy",1,"correct",0.6589,0,35,2,1,"Early","1¢",14.7506849315069,14,"Adolescents",3
"516","Easy",0,"correct",0.6041,0,36,2,1,"Early","1¢",14.7506849315069,14,"Adolescents",3
"517","Easy",1,"correct",0.5595,0,37,2,1,"Early","1¢",14.7506849315069,14,"Adolescents",3
"518","Easy",0,"correct",0.4594,0,38,2,1,"Early","1¢",14.7506849315069,14,"Adolescents",3
"519","Easy",0,"correct",0.4972,0,39,2,1,"Early","1¢",14.7506849315069,14,"Adolescents",3
"520","Easy",0,"correct",0.4897,0,40,2,1,"Early","1¢",14.7506849315069,14,"Adolescents",3
"521","Hard",0,"correct",0.707,0,41,3,1,"Early","10¢",14.7506849315069,14,"Adolescents",3
"522","Hard",0,"correct",0.4079,0,42,3,1,"Early","10¢",14.7506849315069,14,"Adolescents",3
"523","Hard",1,"correct",0.6684,0,43,3,1,"Early","10¢",14.7506849315069,14,"Adolescents",3
"524","Hard",1,"correct",0.7637,0,44,3,1,"Early","10¢",14.7506849315069,14,"Adolescents",3
"525","Hard",0,"correct",0.4192,0,45,3,1,"Early","10¢",14.7506849315069,14,"Adolescents",3
"526","Hard",0,"correct",0.4282,0,46,3,1,"Early","10¢",14.7506849315069,14,"Adolescents",3
"527","Hard",0,"correct",0.3817,0,47,3,1,"Early","10¢",14.7506849315069,14,"Adolescents",3
"528","Hard",0,"correct",0.4604,0,48,3,1,"Early","10¢",14.7506849315069,14,"Adolescents",3
"529","Hard",1,"correct",0.7134,0,49,3,1,"Early","10¢",14.7506849315069,14,"Adolescents",3
"530","Hard",1,"correct",0.5181,0,50,3,1,"Early","10¢",14.7506849315069,14,"Adolescents",3
"531","Hard",1,"correct",0.6194,0,51,3,1,"Early","10¢",14.7506849315069,14,"Adolescents",3
"532","Hard",1,"correct",0.486,0,52,3,1,"Early","10¢",14.7506849315069,14,"Adolescents",3
"533","Hard",1,"correct",0.674,0,53,3,1,"Early","10¢",14.7506849315069,14,"Adolescents",3
"534","Hard",0,"correct",0.5644,0,54,3,1,"Early","10¢",14.7506849315069,14,"Adolescents",3
"535","Hard",0,"correct",0.7127,0,55,3,1,"Early","10¢",14.7506849315069,14,"Adolescents",3
"536","Hard",0,"correct",0.6193,0,56,3,1,"Early","10¢",14.7506849315069,14,"Adolescents",3
"537","Hard",1,"incorrect",0.6707,0,57,3,0,"Early","10¢",14.7506849315069,14,"Adolescents",3
"538","Hard",1,"correct",0.628,0,58,3,1,"Early","10¢",14.7506849315069,14,"Adolescents",3
"539","Hard",1,"correct",0.4894,0,59,3,1,"Early","10¢",14.7506849315069,14,"Adolescents",3
"540","Hard",0,"correct",0.5479,0,60,3,1,"Early","10¢",14.7506849315069,14,"Adolescents",3
"541","Hard",0,"correct",0.8775,0,61,4,1,"Early","1¢",14.7506849315069,14,"Adolescents",3
"542","Hard",1,"correct",0.6186,0,62,4,1,"Early","1¢",14.7506849315069,14,"Adolescents",3
"543","Hard",0,"correct",0.6964,0,63,4,1,"Early","1¢",14.7506849315069,14,"Adolescents",3
"544","Hard",1,"correct",0.4852,0,64,4,1,"Early","1¢",14.7506849315069,14,"Adolescents",3
"545","Hard",0,"correct",0.804,0,65,4,1,"Early","1¢",14.7506849315069,14,"Adolescents",3
"546","Hard",0,"correct",0.4068,0,66,4,1,"Early","1¢",14.7506849315069,14,"Adolescents",3
"547","Hard",0,"correct",0.3787,0,67,4,1,"Early","1¢",14.7506849315069,14,"Adolescents",3
"548","Hard",1,"correct",0.8142,0,68,4,1,"Early","1¢",14.7506849315069,14,"Adolescents",3
"549","Hard",1,"correct",0.542,0,69,4,1,"Early","1¢",14.7506849315069,14,"Adolescents",3
"550","Hard",0,"correct",0.5748,0,70,4,1,"Early","1¢",14.7506849315069,14,"Adolescents",3
"551","Hard",1,"correct",0.668,0,71,4,1,"Early","1¢",14.7506849315069,14,"Adolescents",3
"552","Hard",1,"correct",0.4885,0,72,4,1,"Early","1¢",14.7506849315069,14,"Adolescents",3
"553","Hard",1,"correct",0.6954,0,73,4,1,"Early","1¢",14.7506849315069,14,"Adolescents",3
"554","Hard",0,"correct",0.6266,0,74,4,1,"Early","1¢",14.7506849315069,14,"Adolescents",3
"555","Hard",0,"correct",0.5513,0,75,4,1,"Early","1¢",14.7506849315069,14,"Adolescents",3
"556","Hard",0,"correct",0.5667,0,76,4,1,"Early","1¢",14.7506849315069,14,"Adolescents",3
"557","Hard",1,"correct",0.4756,0,77,4,1,"Early","1¢",14.7506849315069,14,"Adolescents",3
"558","Hard",1,"correct",0.5679,0,78,4,1,"Early","1¢",14.7506849315069,14,"Adolescents",3
"559","Hard",1,"correct",0.7368,0,79,4,1,"Early","1¢",14.7506849315069,14,"Adolescents",3
"560","Hard",0,"correct",0.6621,0,80,4,1,"Early","1¢",14.7506849315069,14,"Adolescents",3
"561","Easy",0,"correct",0.654,0,81,5,1,"Middle","1¢",14.7506849315069,14,"Adolescents",3
"562","Easy",0,"correct",0.4541,0,82,5,1,"Middle","1¢",14.7506849315069,14,"Adolescents",3
"563","Easy",0,"correct",0.4037,0,83,5,1,"Middle","1¢",14.7506849315069,14,"Adolescents",3
"564","Easy",1,"incorrect",0.6679,0,84,5,0,"Middle","1¢",14.7506849315069,14,"Adolescents",3
"565","Easy",0,"correct",0.7238,0,85,5,1,"Middle","1¢",14.7506849315069,14,"Adolescents",3
"566","Easy",0,"correct",0.5222,0,86,5,1,"Middle","1¢",14.7506849315069,14,"Adolescents",3
"567","Easy",1,"correct",0.573,0,87,5,1,"Middle","1¢",14.7506849315069,14,"Adolescents",3
"568","Easy",0,"correct",0.4076,0,88,5,1,"Middle","1¢",14.7506849315069,14,"Adolescents",3
"569","Easy",0,"correct",0.7231,0,89,5,1,"Middle","1¢",14.7506849315069,14,"Adolescents",3
"570","Easy",0,"correct",0.4718,0,90,5,1,"Middle","1¢",14.7506849315069,14,"Adolescents",3
"571","Easy",0,"correct",0.4263,0,91,5,1,"Middle","1¢",14.7506849315069,14,"Adolescents",3
"572","Easy",0,"correct",0.3972,0,92,5,1,"Middle","1¢",14.7506849315069,14,"Adolescents",3
"573","Easy",1,"correct",0.7786,0,93,5,1,"Middle","1¢",14.7506849315069,14,"Adolescents",3
"574","Easy",0,"correct",0.5761,0,94,5,1,"Middle","1¢",14.7506849315069,14,"Adolescents",3
"575","Easy",0,"correct",0.4174,0,95,5,1,"Middle","1¢",14.7506849315069,14,"Adolescents",3
"576","Easy",0,"correct",0.3991,0,96,5,1,"Middle","1¢",14.7506849315069,14,"Adolescents",3
"577","Easy",1,"correct",0.5733,0,97,5,1,"Middle","1¢",14.7506849315069,14,"Adolescents",3
"578","Easy",0,"correct",0.4703,0,98,5,1,"Middle","1¢",14.7506849315069,14,"Adolescents",3
"579","Easy",0,"correct",0.4377,0,99,5,1,"Middle","1¢",14.7506849315069,14,"Adolescents",3
"580","Easy",0,"correct",0.5041,0,100,5,1,"Middle","1¢",14.7506849315069,14,"Adolescents",3
"581","Easy",0,"correct",0.6334,0,101,6,1,"Middle","10¢",14.7506849315069,14,"Adolescents",3
"582","Easy",0,"correct",0.4312,0,102,6,1,"Middle","10¢",14.7506849315069,14,"Adolescents",3
"583","Easy",0,"correct",0.3735,0,103,6,1,"Middle","10¢",14.7506849315069,14,"Adolescents",3
"584","Easy",1,"incorrect",0.7075,0,104,6,0,"Middle","10¢",14.7506849315069,14,"Adolescents",3
"585","Easy",0,"correct",0.5913,0,105,6,1,"Middle","10¢",14.7506849315069,14,"Adolescents",3
"586","Easy",0,"correct",0.5484,0,106,6,1,"Middle","10¢",14.7506849315069,14,"Adolescents",3
"587","Easy",0,"correct",0.7277,0,107,6,1,"Middle","10¢",14.7506849315069,14,"Adolescents",3
"588","Easy",0,"correct",0.5297,0,108,6,1,"Middle","10¢",14.7506849315069,14,"Adolescents",3
"589","Easy",0,"correct",0.5182,0,109,6,1,"Middle","10¢",14.7506849315069,14,"Adolescents",3
"590","Easy",1,"correct",0.8919,0,110,6,1,"Middle","10¢",14.7506849315069,14,"Adolescents",3
"591","Easy",1,"correct",0.8054,0,111,6,1,"Middle","10¢",14.7506849315069,14,"Adolescents",3
"592","Easy",0,"correct",0.6075,0,112,6,1,"Middle","10¢",14.7506849315069,14,"Adolescents",3
"593","Easy",0,"correct",0.5921,0,113,6,1,"Middle","10¢",14.7506849315069,14,"Adolescents",3
"594","Easy",0,"correct",0.4944,0,114,6,1,"Middle","10¢",14.7506849315069,14,"Adolescents",3
"595","Easy",1,"correct",0.519,0,115,6,1,"Middle","10¢",14.7506849315069,14,"Adolescents",3
"596","Easy",0,"correct",0.5323,0,116,6,1,"Middle","10¢",14.7506849315069,14,"Adolescents",3
"597","Easy",0,"correct",0.4635,0,117,6,1,"Middle","10¢",14.7506849315069,14,"Adolescents",3
"598","Easy",0,"correct",0.4108,0,118,6,1,"Middle","10¢",14.7506849315069,14,"Adolescents",3
"599","Easy",0,"correct",0.4708,0,119,6,1,"Middle","10¢",14.7506849315069,14,"Adolescents",3
"600","Easy",0,"correct",0.4923,0,120,6,1,"Middle","10¢",14.7506849315069,14,"Adolescents",3
"601","Hard",0,"correct",0.6942,0,121,7,1,"Middle","1¢",14.7506849315069,14,"Adolescents",3
"602","Hard",0,"correct",0.5077,0,122,7,1,"Middle","1¢",14.7506849315069,14,"Adolescents",3
"603","Hard",1,"correct",0.6584,0,123,7,1,"Middle","1¢",14.7506849315069,14,"Adolescents",3
"604","Hard",1,"correct",0.428,0,124,7,1,"Middle","1¢",14.7506849315069,14,"Adolescents",3
"605","Hard",1,"incorrect",0.6492,0,125,7,0,"Middle","1¢",14.7506849315069,14,"Adolescents",3
"606","Hard",0,"correct",0.7203,0,126,7,1,"Middle","1¢",14.7506849315069,14,"Adolescents",3
"607","Hard",0,"correct",0.6374,0,127,7,1,"Middle","1¢",14.7506849315069,14,"Adolescents",3
"608","Hard",0,"correct",0.688,0,128,7,1,"Middle","1¢",14.7506849315069,14,"Adolescents",3
"609","Hard",1,"correct",0.5296,0,129,7,1,"Middle","1¢",14.7506849315069,14,"Adolescents",3
"610","Hard",0,"correct",0.4307,0,130,7,1,"Middle","1¢",14.7506849315069,14,"Adolescents",3
"611","Hard",0,"correct",0.4984,0,131,7,1,"Middle","1¢",14.7506849315069,14,"Adolescents",3
"612","Hard",0,"correct",0.4071,0,132,7,1,"Middle","1¢",14.7506849315069,14,"Adolescents",3
"613","Hard",1,"correct",0.5966,0,133,7,1,"Middle","1¢",14.7506849315069,14,"Adolescents",3
"614","Hard",1,"correct",0.5697,0,134,7,1,"Middle","1¢",14.7506849315069,14,"Adolescents",3
"615","Hard",1,"correct",0.5253,0,135,7,1,"Middle","1¢",14.7506849315069,14,"Adolescents",3
"616","Hard",0,"correct",0.4872,0,136,7,1,"Middle","1¢",14.7506849315069,14,"Adolescents",3
"617","Hard",1,"correct",0.7185,0,137,7,1,"Middle","1¢",14.7506849315069,14,"Adolescents",3
"618","Hard",0,"incorrect",0.5404,0,138,7,0,"Middle","1¢",14.7506849315069,14,"Adolescents",3
"619","Hard",1,"correct",0.6801,0,139,7,1,"Middle","1¢",14.7506849315069,14,"Adolescents",3
"620","Hard",1,"correct",0.5102,0,140,7,1,"Middle","1¢",14.7506849315069,14,"Adolescents",3
"621","Hard",0,"correct",0.6769,0,141,8,1,"Middle","10¢",14.7506849315069,14,"Adolescents",3
"622","Hard",1,"correct",0.7031,0,142,8,1,"Middle","10¢",14.7506849315069,14,"Adolescents",3
"623","Hard",0,"correct",0.6512,0,143,8,1,"Middle","10¢",14.7506849315069,14,"Adolescents",3
"624","Hard",1,"correct",0.8283,0,144,8,1,"Middle","10¢",14.7506849315069,14,"Adolescents",3
"625","Hard",1,"correct",0.7956,0,145,8,1,"Middle","10¢",14.7506849315069,14,"Adolescents",3
"626","Hard",0,"correct",0.8208,0,146,8,1,"Middle","10¢",14.7506849315069,14,"Adolescents",3
"627","Hard",1,"correct",0.6151,0,147,8,1,"Middle","10¢",14.7506849315069,14,"Adolescents",3
"628","Hard",1,"correct",0.6685,0,148,8,1,"Middle","10¢",14.7506849315069,14,"Adolescents",3
"629","Hard",0,"correct",0.7204,0,149,8,1,"Middle","10¢",14.7506849315069,14,"Adolescents",3
"630","Hard",0,"correct",0.6678,0,150,8,1,"Middle","10¢",14.7506849315069,14,"Adolescents",3
"631","Hard",1,"correct",0.47,0,151,8,1,"Middle","10¢",14.7506849315069,14,"Adolescents",3
"632","Hard",0,"correct",0.493,0,152,8,1,"Middle","10¢",14.7506849315069,14,"Adolescents",3
"633","Hard",0,"correct",0.5064,0,153,8,1,"Middle","10¢",14.7506849315069,14,"Adolescents",3
"634","Hard",0,"correct",0.4513,0,154,8,1,"Middle","10¢",14.7506849315069,14,"Adolescents",3
"635","Hard",1,"incorrect",0.5004,0,155,8,0,"Middle","10¢",14.7506849315069,14,"Adolescents",3
"636","Hard",1,"correct",0.5611,0,156,8,1,"Middle","10¢",14.7506849315069,14,"Adolescents",3
"637","Hard",1,"correct",0.8353,0,157,8,1,"Middle","10¢",14.7506849315069,14,"Adolescents",3
"638","Hard",1,"correct",0.5079,0,158,8,1,"Middle","10¢",14.7506849315069,14,"Adolescents",3
"639","Hard",0,"correct",0.5477,0,159,8,1,"Middle","10¢",14.7506849315069,14,"Adolescents",3
"640","Hard",0,"correct",0.8066,0,160,8,1,"Middle","10¢",14.7506849315069,14,"Adolescents",3
"641","Easy",0,"correct",0.6626,0,161,9,1,"Late","10¢",14.7506849315069,14,"Adolescents",3
"642","Easy",0,"correct",0.4511,0,162,9,1,"Late","10¢",14.7506849315069,14,"Adolescents",3
"643","Easy",0,"correct",0.4232,0,163,9,1,"Late","10¢",14.7506849315069,14,"Adolescents",3
"644","Easy",1,"correct",0.7902,0,164,9,1,"Late","10¢",14.7506849315069,14,"Adolescents",3
"645","Easy",0,"correct",0.6398,0,165,9,1,"Late","10¢",14.7506849315069,14,"Adolescents",3
"646","Easy",0,"correct",0.5484,0,166,9,1,"Late","10¢",14.7506849315069,14,"Adolescents",3
"647","Easy",0,"correct",0.3959,0,167,9,1,"Late","10¢",14.7506849315069,14,"Adolescents",3
"648","Easy",0,"correct",0.4828,0,168,9,1,"Late","10¢",14.7506849315069,14,"Adolescents",3
"649","Easy",0,"correct",0.5521,0,169,9,1,"Late","10¢",14.7506849315069,14,"Adolescents",3
"650","Easy",0,"correct",0.5983,0,170,9,1,"Late","10¢",14.7506849315069,14,"Adolescents",3
"651","Easy",1,"correct",0.6274,0,171,9,1,"Late","10¢",14.7506849315069,14,"Adolescents",3
"652","Easy",0,"correct",0.4601,0,172,9,1,"Late","10¢",14.7506849315069,14,"Adolescents",3
"653","Easy",0,"correct",0.4103,0,173,9,1,"Late","10¢",14.7506849315069,14,"Adolescents",3
"654","Easy",0,"correct",0.4337,0,174,9,1,"Late","10¢",14.7506849315069,14,"Adolescents",3
"655","Easy",1,"correct",0.4778,0,175,9,1,"Late","10¢",14.7506849315069,14,"Adolescents",3
"656","Easy",0,"correct",0.5522,0,176,9,1,"Late","10¢",14.7506849315069,14,"Adolescents",3
"657","Easy",0,"correct",0.5948,0,177,9,1,"Late","10¢",14.7506849315069,14,"Adolescents",3
"658","Easy",0,"correct",0.4853,0,178,9,1,"Late","10¢",14.7506849315069,14,"Adolescents",3
"659","Easy",0,"correct",0.5532,0,179,9,1,"Late","10¢",14.7506849315069,14,"Adolescents",3
"660","Easy",1,"incorrect",0.6323,0,180,9,0,"Late","10¢",14.7506849315069,14,"Adolescents",3
"661","Easy",0,"correct",0.5746,0,181,10,1,"Late","1¢",14.7506849315069,14,"Adolescents",3
"662","Easy",1,"correct",0.5138,0,182,10,1,"Late","1¢",14.7506849315069,14,"Adolescents",3
"663","Easy",0,"correct",0.5212,0,183,10,1,"Late","1¢",14.7506849315069,14,"Adolescents",3
"664","Easy",1,"correct",0.5151,0,184,10,1,"Late","1¢",14.7506849315069,14,"Adolescents",3
"665","Easy",0,"correct",0.4567,0,185,10,1,"Late","1¢",14.7506849315069,14,"Adolescents",3
"666","Easy",0,"correct",0.412,0,186,10,1,"Late","1¢",14.7506849315069,14,"Adolescents",3
"667","Easy",0,"correct",0.3851,0,187,10,1,"Late","1¢",14.7506849315069,14,"Adolescents",3
"668","Easy",0,"correct",0.7235,0,188,10,1,"Late","1¢",14.7506849315069,14,"Adolescents",3
"669","Easy",0,"correct",0.4625,0,189,10,1,"Late","1¢",14.7506849315069,14,"Adolescents",3
"670","Easy",0,"correct",0.4261,0,190,10,1,"Late","1¢",14.7506849315069,14,"Adolescents",3
"671","Easy",0,"correct",0.445,0,191,10,1,"Late","1¢",14.7506849315069,14,"Adolescents",3
"672","Easy",0,"correct",0.4664,0,192,10,1,"Late","1¢",14.7506849315069,14,"Adolescents",3
"673","Easy",0,"correct",0.4192,0,193,10,1,"Late","1¢",14.7506849315069,14,"Adolescents",3
"674","Easy",0,"correct",0.3952,0,194,10,1,"Late","1¢",14.7506849315069,14,"Adolescents",3
"675","Easy",1,"correct",0.7384,0,195,10,1,"Late","1¢",14.7506849315069,14,"Adolescents",3
"676","Easy",0,"correct",0.5438,0,196,10,1,"Late","1¢",14.7506849315069,14,"Adolescents",3
"677","Easy",0,"correct",0.7883,0,197,10,1,"Late","1¢",14.7506849315069,14,"Adolescents",3
"678","Easy",0,"correct",0.4502,0,198,10,1,"Late","1¢",14.7506849315069,14,"Adolescents",3
"679","Easy",0,"correct",0.4561,0,199,10,1,"Late","1¢",14.7506849315069,14,"Adolescents",3
"680","Easy",1,"correct",0.4546,0,200,10,1,"Late","1¢",14.7506849315069,14,"Adolescents",3
"681","Hard",0,"correct",0.6107,0,201,11,1,"Late","10¢",14.7506849315069,14,"Adolescents",3
"682","Hard",0,"correct",0.4253,0,202,11,1,"Late","10¢",14.7506849315069,14,"Adolescents",3
"683","Hard",1,"correct",0.4993,0,203,11,1,"Late","10¢",14.7506849315069,14,"Adolescents",3
"684","Hard",1,"correct",0.7099,0,204,11,1,"Late","10¢",14.7506849315069,14,"Adolescents",3
"685","Hard",0,"correct",0.4182,0,205,11,1,"Late","10¢",14.7506849315069,14,"Adolescents",3
"686","Hard",0,"correct",0.4042,0,206,11,1,"Late","10¢",14.7506849315069,14,"Adolescents",3
"687","Hard",0,"correct",0.4595,0,207,11,1,"Late","10¢",14.7506849315069,14,"Adolescents",3
"688","Hard",1,"correct",0.848,0,208,11,1,"Late","10¢",14.7506849315069,14,"Adolescents",3
"689","Hard",0,"correct",0.638,0,209,11,1,"Late","10¢",14.7506849315069,14,"Adolescents",3
"690","Hard",0,"correct",0.587,0,210,11,1,"Late","10¢",14.7506849315069,14,"Adolescents",3
"691","Hard",1,"correct",0.5905,0,211,11,1,"Late","10¢",14.7506849315069,14,"Adolescents",3
"692","Hard",0,"correct",0.731,0,212,11,1,"Late","10¢",14.7506849315069,14,"Adolescents",3
"693","Hard",1,"correct",0.7033,0,213,11,1,"Late","10¢",14.7506849315069,14,"Adolescents",3
"694","Hard",1,"correct",0.5854,0,214,11,1,"Late","10¢",14.7506849315069,14,"Adolescents",3
"695","Hard",1,"correct",0.727,0,215,11,1,"Late","10¢",14.7506849315069,14,"Adolescents",3
"696","Hard",0,"correct",0.6218,0,216,11,1,"Late","10¢",14.7506849315069,14,"Adolescents",3
"697","Hard",0,"correct",0.6573,0,217,11,1,"Late","10¢",14.7506849315069,14,"Adolescents",3
"698","Hard",1,"correct",0.6114,0,218,11,1,"Late","10¢",14.7506849315069,14,"Adolescents",3
"699","Hard",1,"correct",0.5036,0,219,11,1,"Late","10¢",14.7506849315069,14,"Adolescents",3
"700","Hard",1,"correct",0.7643,0,220,11,1,"Late","10¢",14.7506849315069,14,"Adolescents",3
"701","Hard",0,"correct",0.6393,0,221,12,1,"Late","1¢",14.7506849315069,14,"Adolescents",3
"702","Hard",1,"correct",0.7099,0,222,12,1,"Late","1¢",14.7506849315069,14,"Adolescents",3
"703","Hard",0,"correct",0.5767,0,223,12,1,"Late","1¢",14.7506849315069,14,"Adolescents",3
"704","Hard",0,"correct",0.525,0,224,12,1,"Late","1¢",14.7506849315069,14,"Adolescents",3
"705","Hard",1,"correct",0.5157,0,225,12,1,"Late","1¢",14.7506849315069,14,"Adolescents",3
"706","Hard",1,"correct",0.7203,0,226,12,1,"Late","1¢",14.7506849315069,14,"Adolescents",3
"707","Hard",0,"correct",0.5597,0,227,12,1,"Late","1¢",14.7506849315069,14,"Adolescents",3
"708","Hard",1,"correct",0.5347,0,228,12,1,"Late","1¢",14.7506849315069,14,"Adolescents",3
"709","Hard",0,"correct",0.7121,0,229,12,1,"Late","1¢",14.7506849315069,14,"Adolescents",3
"710","Hard",1,"correct",0.5707,0,230,12,1,"Late","1¢",14.7506849315069,14,"Adolescents",3
"711","Hard",1,"correct",0.4325,0,231,12,1,"Late","1¢",14.7506849315069,14,"Adolescents",3
"712","Hard",0,"correct",0.5538,0,232,12,1,"Late","1¢",14.7506849315069,14,"Adolescents",3
"713","Hard",1,"correct",0.5278,0,233,12,1,"Late","1¢",14.7506849315069,14,"Adolescents",3
"714","Hard",0,"correct",0.7282,0,234,12,1,"Late","1¢",14.7506849315069,14,"Adolescents",3
"715","Hard",0,"correct",0.5938,0,235,12,1,"Late","1¢",14.7506849315069,14,"Adolescents",3
"716","Hard",1,"correct",0.4486,0,236,12,1,"Late","1¢",14.7506849315069,14,"Adolescents",3
"717","Hard",0,"correct",0.5018,0,237,12,1,"Late","1¢",14.7506849315069,14,"Adolescents",3
"718","Hard",1,"correct",0.4926,0,238,12,1,"Late","1¢",14.7506849315069,14,"Adolescents",3
"719","Hard",1,"correct",0.5138,0,239,12,1,"Late","1¢",14.7506849315069,14,"Adolescents",3
"720","Hard",0,"correct",0.4329,0,240,12,1,"Late","1¢",14.7506849315069,14,"Adolescents",3
"721","Easy",0,"correct",1.247,0,1,1,1,"Early","10¢",12.3698630136986,12,"Children",4
"722","Easy",0,"correct",0.7996,0,2,1,1,"Early","10¢",12.3698630136986,12,"Children",4
"723","Easy",0,"correct",0.7389,0,3,1,1,"Early","10¢",12.3698630136986,12,"Children",4
"724","Easy",0,"correct",0.81,0,4,1,1,"Early","10¢",12.3698630136986,12,"Children",4
"725","Easy",1,"correct",1.0699,0,5,1,1,"Early","10¢",12.3698630136986,12,"Children",4
"726","Easy",0,"correct",0.9164,0,6,1,1,"Early","10¢",12.3698630136986,12,"Children",4
"727","Easy",0,"correct",0.8425,0,7,1,1,"Early","10¢",12.3698630136986,12,"Children",4
"728","Easy",0,"correct",0.9342,0,8,1,1,"Early","10¢",12.3698630136986,12,"Children",4
"729","Easy",0,"incorrect",0.6403,0,9,1,0,"Early","10¢",12.3698630136986,12,"Children",4
"730","Easy",1,"correct",0.8801,0,10,1,1,"Early","10¢",12.3698630136986,12,"Children",4
"731","Easy",1,"correct",1.2646,0,11,1,1,"Early","10¢",12.3698630136986,12,"Children",4
"732","Easy",1,"correct",0.4204,0,12,1,1,"Early","10¢",12.3698630136986,12,"Children",4
"733","Easy",0,"correct",0.7343,0,13,1,1,"Early","10¢",12.3698630136986,12,"Children",4
"734","Easy",0,"correct",1.4194,0,14,1,1,"Early","10¢",12.3698630136986,12,"Children",4
"735","Easy",0,"correct",0.9199,0,15,1,1,"Early","10¢",12.3698630136986,12,"Children",4
"736","Easy",0,"correct",0.6793,0,16,1,1,"Early","10¢",12.3698630136986,12,"Children",4
"737","Easy",0,"correct",0.6126,0,17,1,1,"Early","10¢",12.3698630136986,12,"Children",4
"738","Easy",0,"correct",0.6422,0,18,1,1,"Early","10¢",12.3698630136986,12,"Children",4
"739","Easy",0,"correct",0.7185,0,19,1,1,"Early","10¢",12.3698630136986,12,"Children",4
"740","Easy",0,"correct",0.6002,0,20,1,1,"Early","10¢",12.3698630136986,12,"Children",4
"741","Easy",0,"correct",1.1923,0,21,2,1,"Early","1¢",12.3698630136986,12,"Children",4
"742","Easy",0,"correct",0.9978,0,22,2,1,"Early","1¢",12.3698630136986,12,"Children",4
"743","Easy",0,"correct",1.169,0,23,2,1,"Early","1¢",12.3698630136986,12,"Children",4
"744","Easy",1,"correct",1.0257,0,24,2,1,"Early","1¢",12.3698630136986,12,"Children",4
"745","Easy",0,"correct",1.1154,0,25,2,1,"Early","1¢",12.3698630136986,12,"Children",4
"746","Easy",0,"correct",0.729,0,26,2,1,"Early","1¢",12.3698630136986,12,"Children",4
"747","Easy",0,"too_slow",NA,1,27,2,NA,"Early","1¢",12.3698630136986,12,"Children",4
"748","Easy",0,"correct",0.9432,0,28,2,1,"Early","1¢",12.3698630136986,12,"Children",4
"749","Easy",0,"correct",1.1042,0,29,2,1,"Early","1¢",12.3698630136986,12,"Children",4
"750","Easy",0,"correct",1.0154,0,30,2,1,"Early","1¢",12.3698630136986,12,"Children",4
"751","Easy",1,"correct",0.7072,0,31,2,1,"Early","1¢",12.3698630136986,12,"Children",4
"752","Easy",1,"correct",0.9498,0,32,2,1,"Early","1¢",12.3698630136986,12,"Children",4
"753","Easy",0,"correct",1.4491,0,33,2,1,"Early","1¢",12.3698630136986,12,"Children",4
"754","Easy",0,"correct",0.7375,0,34,2,1,"Early","1¢",12.3698630136986,12,"Children",4
"755","Easy",0,"correct",0.8739,0,35,2,1,"Early","1¢",12.3698630136986,12,"Children",4
"756","Easy",1,"correct",1.1001,0,36,2,1,"Early","1¢",12.3698630136986,12,"Children",4
"757","Easy",0,"correct",0.6898,0,37,2,1,"Early","1¢",12.3698630136986,12,"Children",4
"758","Easy",0,"correct",0.6372,0,38,2,1,"Early","1¢",12.3698630136986,12,"Children",4
"759","Easy",0,"correct",0.6593,0,39,2,1,"Early","1¢",12.3698630136986,12,"Children",4
"760","Easy",0,"correct",0.9337,0,40,2,1,"Early","1¢",12.3698630136986,12,"Children",4
"761","Hard",0,"correct",1.1136,0,41,3,1,"Early","10¢",12.3698630136986,12,"Children",4
"762","Hard",0,"correct",0.5669,0,42,3,1,"Early","10¢",12.3698630136986,12,"Children",4
"763","Hard",0,"correct",0.6787,0,43,3,1,"Early","10¢",12.3698630136986,12,"Children",4
"764","Hard",1,"correct",0.9805,0,44,3,1,"Early","10¢",12.3698630136986,12,"Children",4
"765","Hard",1,"correct",0.4191,0,45,3,1,"Early","10¢",12.3698630136986,12,"Children",4
"766","Hard",0,"correct",0.6028,0,46,3,1,"Early","10¢",12.3698630136986,12,"Children",4
"767","Hard",1,"correct",0.4055,0,47,3,1,"Early","10¢",12.3698630136986,12,"Children",4
"768","Hard",1,"correct",0.7457,0,48,3,1,"Early","10¢",12.3698630136986,12,"Children",4
"769","Hard",1,"correct",0.7535,0,49,3,1,"Early","10¢",12.3698630136986,12,"Children",4
"770","Hard",0,"incorrect",0.7683,0,50,3,0,"Early","10¢",12.3698630136986,12,"Children",4
"771","Hard",0,"correct",0.9335,0,51,3,1,"Early","10¢",12.3698630136986,12,"Children",4
"772","Hard",1,"correct",0.6365,0,52,3,1,"Early","10¢",12.3698630136986,12,"Children",4
"773","Hard",0,"correct",0.4612,0,53,3,1,"Early","10¢",12.3698630136986,12,"Children",4
"774","Hard",1,"incorrect",0.7972,0,54,3,0,"Early","10¢",12.3698630136986,12,"Children",4
"775","Hard",0,"correct",1.1009,0,55,3,1,"Early","10¢",12.3698630136986,12,"Children",4
"776","Hard",1,"correct",0.7897,0,56,3,1,"Early","10¢",12.3698630136986,12,"Children",4
"777","Hard",1,"correct",0.767,0,57,3,1,"Early","10¢",12.3698630136986,12,"Children",4
"778","Hard",0,"correct",0.7291,0,58,3,1,"Early","10¢",12.3698630136986,12,"Children",4
"779","Hard",0,"correct",1.0226,0,59,3,1,"Early","10¢",12.3698630136986,12,"Children",4
"780","Hard",1,"correct",0.6972,0,60,3,1,"Early","10¢",12.3698630136986,12,"Children",4
"781","Hard",0,"correct",0.9828,0,61,4,1,"Early","1¢",12.3698630136986,12,"Children",4
"782","Hard",0,"correct",0.8779,0,62,4,1,"Early","1¢",12.3698630136986,12,"Children",4
"783","Hard",0,"correct",0.7638,0,63,4,1,"Early","1¢",12.3698630136986,12,"Children",4
"784","Hard",1,"correct",0.7446,0,64,4,1,"Early","1¢",12.3698630136986,12,"Children",4
"785","Hard",1,"correct",0.707,0,65,4,1,"Early","1¢",12.3698630136986,12,"Children",4
"786","Hard",0,"correct",1.001,0,66,4,1,"Early","1¢",12.3698630136986,12,"Children",4
"787","Hard",1,"correct",0.9232,0,67,4,1,"Early","1¢",12.3698630136986,12,"Children",4
"788","Hard",0,"correct",0.8792,0,68,4,1,"Early","1¢",12.3698630136986,12,"Children",4
"789","Hard",1,"correct",0.8357,0,69,4,1,"Early","1¢",12.3698630136986,12,"Children",4
"790","Hard",1,"correct",0.7372,0,70,4,1,"Early","1¢",12.3698630136986,12,"Children",4
"791","Hard",0,"correct",0.8366,0,71,4,1,"Early","1¢",12.3698630136986,12,"Children",4
"792","Hard",1,"correct",1.0514,0,72,4,1,"Early","1¢",12.3698630136986,12,"Children",4
"793","Hard",1,"correct",0.7126,0,73,4,1,"Early","1¢",12.3698630136986,12,"Children",4
"794","Hard",0,"correct",1.0493,0,74,4,1,"Early","1¢",12.3698630136986,12,"Children",4
"795","Hard",0,"correct",1.0107,0,75,4,1,"Early","1¢",12.3698630136986,12,"Children",4
"796","Hard",0,"correct",1.1647,0,76,4,1,"Early","1¢",12.3698630136986,12,"Children",4
"797","Hard",1,"incorrect",1.2475,0,77,4,0,"Early","1¢",12.3698630136986,12,"Children",4
"798","Hard",1,"correct",0.8401,0,78,4,1,"Early","1¢",12.3698630136986,12,"Children",4
"799","Hard",1,"correct",0.7688,0,79,4,1,"Early","1¢",12.3698630136986,12,"Children",4
"800","Hard",0,"correct",0.9076,0,80,4,1,"Early","1¢",12.3698630136986,12,"Children",4
"801","Easy",0,"correct",1.3858,0,81,5,1,"Middle","1¢",12.3698630136986,12,"Children",4
"802","Easy",0,"correct",0.7835,0,82,5,1,"Middle","1¢",12.3698630136986,12,"Children",4
"803","Easy",1,"correct",0.9022,0,83,5,1,"Middle","1¢",12.3698630136986,12,"Children",4
"804","Easy",0,"correct",0.8635,0,84,5,1,"Middle","1¢",12.3698630136986,12,"Children",4
"805","Easy",0,"correct",1.0452,0,85,5,1,"Middle","1¢",12.3698630136986,12,"Children",4
"806","Easy",1,"correct",0.6834,0,86,5,1,"Middle","1¢",12.3698630136986,12,"Children",4
"807","Easy",0,"correct",0.8909,0,87,5,1,"Middle","1¢",12.3698630136986,12,"Children",4
"808","Easy",0,"correct",1.0302,0,88,5,1,"Middle","1¢",12.3698630136986,12,"Children",4
"809","Easy",0,"correct",0.8965,0,89,5,1,"Middle","1¢",12.3698630136986,12,"Children",4
"810","Easy",0,"correct",1.213,0,90,5,1,"Middle","1¢",12.3698630136986,12,"Children",4
"811","Easy",0,"correct",0.8704,0,91,5,1,"Middle","1¢",12.3698630136986,12,"Children",4
"812","Easy",1,"correct",0.7561,0,92,5,1,"Middle","1¢",12.3698630136986,12,"Children",4
"813","Easy",0,"correct",1.2797,0,93,5,1,"Middle","1¢",12.3698630136986,12,"Children",4
"814","Easy",0,"correct",0.6312,0,94,5,1,"Middle","1¢",12.3698630136986,12,"Children",4
"815","Easy",1,"correct",0.7458,0,95,5,1,"Middle","1¢",12.3698630136986,12,"Children",4
"816","Easy",0,"correct",0.7083,0,96,5,1,"Middle","1¢",12.3698630136986,12,"Children",4
"817","Easy",0,"correct",0.841,0,97,5,1,"Middle","1¢",12.3698630136986,12,"Children",4
"818","Easy",0,"correct",0.7281,0,98,5,1,"Middle","1¢",12.3698630136986,12,"Children",4
"819","Easy",0,"correct",1.2707,0,99,5,1,"Middle","1¢",12.3698630136986,12,"Children",4
"820","Easy",0,"correct",1.2082,0,100,5,1,"Middle","1¢",12.3698630136986,12,"Children",4
"821","Easy",0,"correct",0.9586,0,101,6,1,"Middle","10¢",12.3698630136986,12,"Children",4
"822","Easy",1,"correct",0.9038,0,102,6,1,"Middle","10¢",12.3698630136986,12,"Children",4
"823","Easy",0,"correct",0.6759,0,103,6,1,"Middle","10¢",12.3698630136986,12,"Children",4
"824","Easy",0,"correct",0.6097,0,104,6,1,"Middle","10¢",12.3698630136986,12,"Children",4
"825","Easy",0,"correct",0.9803,0,105,6,1,"Middle","10¢",12.3698630136986,12,"Children",4
"826","Easy",0,"correct",0.7699,0,106,6,1,"Middle","10¢",12.3698630136986,12,"Children",4
"827","Easy",1,"correct",0.5871,0,107,6,1,"Middle","10¢",12.3698630136986,12,"Children",4
"828","Easy",1,"correct",0.8138,0,108,6,1,"Middle","10¢",12.3698630136986,12,"Children",4
"829","Easy",0,"correct",0.9993,0,109,6,1,"Middle","10¢",12.3698630136986,12,"Children",4
"830","Easy",0,"correct",0.9208,0,110,6,1,"Middle","10¢",12.3698630136986,12,"Children",4
"831","Easy",0,"correct",0.9022,0,111,6,1,"Middle","10¢",12.3698630136986,12,"Children",4
"832","Easy",0,"correct",1.2801,0,112,6,1,"Middle","10¢",12.3698630136986,12,"Children",4
"833","Easy",1,"correct",0.7022,0,113,6,1,"Middle","10¢",12.3698630136986,12,"Children",4
"834","Easy",0,"correct",0.6001,0,114,6,1,"Middle","10¢",12.3698630136986,12,"Children",4
"835","Easy",0,"correct",0.6149,0,115,6,1,"Middle","10¢",12.3698630136986,12,"Children",4
"836","Easy",0,"correct",0.7009,0,116,6,1,"Middle","10¢",12.3698630136986,12,"Children",4
"837","Easy",0,"correct",0.8813,0,117,6,1,"Middle","10¢",12.3698630136986,12,"Children",4
"838","Easy",0,"correct",0.8402,0,118,6,1,"Middle","10¢",12.3698630136986,12,"Children",4
"839","Easy",0,"correct",0.8003,0,119,6,1,"Middle","10¢",12.3698630136986,12,"Children",4
"840","Easy",0,"correct",1.0157,0,120,6,1,"Middle","10¢",12.3698630136986,12,"Children",4
"841","Hard",0,"correct",1.2255,0,121,7,1,"Middle","1¢",12.3698630136986,12,"Children",4
"842","Hard",0,"correct",0.7404,0,122,7,1,"Middle","1¢",12.3698630136986,12,"Children",4
"843","Hard",0,"correct",0.6654,0,123,7,1,"Middle","1¢",12.3698630136986,12,"Children",4
"844","Hard",1,"correct",0.7827,0,124,7,1,"Middle","1¢",12.3698630136986,12,"Children",4
"845","Hard",1,"correct",0.5999,0,125,7,1,"Middle","1¢",12.3698630136986,12,"Children",4
"846","Hard",1,"correct",0.6906,0,126,7,1,"Middle","1¢",12.3698630136986,12,"Children",4
"847","Hard",0,"correct",0.7839,0,127,7,1,"Middle","1¢",12.3698630136986,12,"Children",4
"848","Hard",1,"correct",0.5362,0,128,7,1,"Middle","1¢",12.3698630136986,12,"Children",4
"849","Hard",1,"correct",0.6604,0,129,7,1,"Middle","1¢",12.3698630136986,12,"Children",4
"850","Hard",0,"correct",0.8114,0,130,7,1,"Middle","1¢",12.3698630136986,12,"Children",4
"851","Hard",0,"correct",0.8602,0,131,7,1,"Middle","1¢",12.3698630136986,12,"Children",4
"852","Hard",0,"correct",0.8381,0,132,7,1,"Middle","1¢",12.3698630136986,12,"Children",4
"853","Hard",1,"correct",0.8695,0,133,7,1,"Middle","1¢",12.3698630136986,12,"Children",4
"854","Hard",0,"correct",0.9394,0,134,7,1,"Middle","1¢",12.3698630136986,12,"Children",4
"855","Hard",1,"correct",0.6839,0,135,7,1,"Middle","1¢",12.3698630136986,12,"Children",4
"856","Hard",1,"correct",0.9477,0,136,7,1,"Middle","1¢",12.3698630136986,12,"Children",4
"857","Hard",1,"correct",0.7186,0,137,7,1,"Middle","1¢",12.3698630136986,12,"Children",4
"858","Hard",1,"correct",0.8528,0,138,7,1,"Middle","1¢",12.3698630136986,12,"Children",4
"859","Hard",0,"correct",0.7802,0,139,7,1,"Middle","1¢",12.3698630136986,12,"Children",4
"860","Hard",0,"correct",0.7014,0,140,7,1,"Middle","1¢",12.3698630136986,12,"Children",4
"861","Hard",0,"correct",0.8119,0,141,8,1,"Middle","10¢",12.3698630136986,12,"Children",4
"862","Hard",0,"correct",0.6502,0,142,8,1,"Middle","10¢",12.3698630136986,12,"Children",4
"863","Hard",1,"correct",1.0472,0,143,8,1,"Middle","10¢",12.3698630136986,12,"Children",4
"864","Hard",1,"correct",0.5481,0,144,8,1,"Middle","10¢",12.3698630136986,12,"Children",4
"865","Hard",1,"correct",1.0901,0,145,8,1,"Middle","10¢",12.3698630136986,12,"Children",4
"866","Hard",1,"correct",0.7503,0,146,8,1,"Middle","10¢",12.3698630136986,12,"Children",4
"867","Hard",0,"correct",0.4511,0,147,8,1,"Middle","10¢",12.3698630136986,12,"Children",4
"868","Hard",1,"correct",0.698,0,148,8,1,"Middle","10¢",12.3698630136986,12,"Children",4
"869","Hard",1,"correct",0.6544,0,149,8,1,"Middle","10¢",12.3698630136986,12,"Children",4
"870","Hard",1,"correct",0.6985,0,150,8,1,"Middle","10¢",12.3698630136986,12,"Children",4
"871","Hard",1,"correct",0.7099,0,151,8,1,"Middle","10¢",12.3698630136986,12,"Children",4
"872","Hard",0,"correct",0.6122,0,152,8,1,"Middle","10¢",12.3698630136986,12,"Children",4
"873","Hard",0,"correct",0.5997,0,153,8,1,"Middle","10¢",12.3698630136986,12,"Children",4
"874","Hard",1,"incorrect",0.8474,0,154,8,0,"Middle","10¢",12.3698630136986,12,"Children",4
"875","Hard",0,"correct",1.0284,0,155,8,1,"Middle","10¢",12.3698630136986,12,"Children",4
"876","Hard",0,"correct",0.6634,0,156,8,1,"Middle","10¢",12.3698630136986,12,"Children",4
"877","Hard",0,"correct",1.4678,0,157,8,1,"Middle","10¢",12.3698630136986,12,"Children",4
"878","Hard",0,"correct",0.7469,0,158,8,1,"Middle","10¢",12.3698630136986,12,"Children",4
"879","Hard",1,"correct",1.055,0,159,8,1,"Middle","10¢",12.3698630136986,12,"Children",4
"880","Hard",0,"correct",1.2411,0,160,8,1,"Middle","10¢",12.3698630136986,12,"Children",4
"881","Easy",0,"correct",0.9133,0,161,9,1,"Late","10¢",12.3698630136986,12,"Children",4
"882","Easy",1,"correct",0.7655,0,162,9,1,"Late","10¢",12.3698630136986,12,"Children",4
"883","Easy",0,"incorrect",0.864,0,163,9,0,"Late","10¢",12.3698630136986,12,"Children",4
"884","Easy",0,"correct",0.9487,0,164,9,1,"Late","10¢",12.3698630136986,12,"Children",4
"885","Easy",0,"correct",1.012,0,165,9,1,"Late","10¢",12.3698630136986,12,"Children",4
"886","Easy",0,"correct",0.647,0,166,9,1,"Late","10¢",12.3698630136986,12,"Children",4
"887","Easy",0,"correct",0.7792,0,167,9,1,"Late","10¢",12.3698630136986,12,"Children",4
"888","Easy",1,"correct",0.9905,0,168,9,1,"Late","10¢",12.3698630136986,12,"Children",4
"889","Easy",0,"correct",0.364,0,169,9,1,"Late","10¢",12.3698630136986,12,"Children",4
"890","Easy",0,"correct",0.5447,0,170,9,1,"Late","10¢",12.3698630136986,12,"Children",4
"891","Easy",0,"correct",0.5638,0,171,9,1,"Late","10¢",12.3698630136986,12,"Children",4
"892","Easy",0,"correct",0.6442,0,172,9,1,"Late","10¢",12.3698630136986,12,"Children",4
"893","Easy",0,"correct",0.5547,0,173,9,1,"Late","10¢",12.3698630136986,12,"Children",4
"894","Easy",1,"correct",0.7954,0,174,9,1,"Late","10¢",12.3698630136986,12,"Children",4
"895","Easy",0,"correct",0.9156,0,175,9,1,"Late","10¢",12.3698630136986,12,"Children",4
"896","Easy",0,"correct",1.184,0,176,9,1,"Late","10¢",12.3698630136986,12,"Children",4
"897","Easy",0,"correct",0.8627,0,177,9,1,"Late","10¢",12.3698630136986,12,"Children",4
"898","Easy",0,"too_slow",NA,1,178,9,NA,"Late","10¢",12.3698630136986,12,"Children",4
"899","Easy",0,"correct",1.0992,0,179,9,1,"Late","10¢",12.3698630136986,12,"Children",4
"900","Easy",1,"correct",0.9288,0,180,9,1,"Late","10¢",12.3698630136986,12,"Children",4
"901","Easy",0,"correct",1.0589,0,181,10,1,"Late","1¢",12.3698630136986,12,"Children",4
"902","Easy",0,"correct",1.2459,0,182,10,1,"Late","1¢",12.3698630136986,12,"Children",4
"903","Easy",0,"correct",0.7472,0,183,10,1,"Late","1¢",12.3698630136986,12,"Children",4
"904","Easy",0,"correct",0.6755,0,184,10,1,"Late","1¢",12.3698630136986,12,"Children",4
"905","Easy",1,"correct",1.0296,0,185,10,1,"Late","1¢",12.3698630136986,12,"Children",4
"906","Easy",0,"correct",0.7428,0,186,10,1,"Late","1¢",12.3698630136986,12,"Children",4
"907","Easy",0,"correct",1.011,0,187,10,1,"Late","1¢",12.3698630136986,12,"Children",4
"908","Easy",1,"correct",0.9328,0,188,10,1,"Late","1¢",12.3698630136986,12,"Children",4
"909","Easy",0,"correct",0.8667,0,189,10,1,"Late","1¢",12.3698630136986,12,"Children",4
"910","Easy",0,"correct",0.7467,0,190,10,1,"Late","1¢",12.3698630136986,12,"Children",4
"911","Easy",0,"correct",1.0853,0,191,10,1,"Late","1¢",12.3698630136986,12,"Children",4
"912","Easy",0,"correct",0.8354,0,192,10,1,"Late","1¢",12.3698630136986,12,"Children",4
"913","Easy",0,"correct",0.834,0,193,10,1,"Late","1¢",12.3698630136986,12,"Children",4
"914","Easy",1,"correct",0.8934,0,194,10,1,"Late","1¢",12.3698630136986,12,"Children",4
"915","Easy",1,"correct",0.652,0,195,10,1,"Late","1¢",12.3698630136986,12,"Children",4
"916","Easy",0,"correct",0.7701,0,196,10,1,"Late","1¢",12.3698630136986,12,"Children",4
"917","Easy",0,"correct",0.8783,0,197,10,1,"Late","1¢",12.3698630136986,12,"Children",4
"918","Easy",0,"correct",0.7984,0,198,10,1,"Late","1¢",12.3698630136986,12,"Children",4
"919","Easy",0,"correct",0.6137,0,199,10,1,"Late","1¢",12.3698630136986,12,"Children",4
"920","Easy",0,"correct",0.774,0,200,10,1,"Late","1¢",12.3698630136986,12,"Children",4
"921","Hard",0,"correct",0.821,0,201,11,1,"Late","10¢",12.3698630136986,12,"Children",4
"922","Hard",1,"correct",0.8832,0,202,11,1,"Late","10¢",12.3698630136986,12,"Children",4
"923","Hard",1,"correct",0.8269,0,203,11,1,"Late","10¢",12.3698630136986,12,"Children",4
"924","Hard",1,"correct",0.87,0,204,11,1,"Late","10¢",12.3698630136986,12,"Children",4
"925","Hard",0,"correct",0.6983,0,205,11,1,"Late","10¢",12.3698630136986,12,"Children",4
"926","Hard",1,"correct",1.0379,0,206,11,1,"Late","10¢",12.3698630136986,12,"Children",4
"927","Hard",0,"correct",1.3326,0,207,11,1,"Late","10¢",12.3698630136986,12,"Children",4
"928","Hard",1,"correct",0.8822,0,208,11,1,"Late","10¢",12.3698630136986,12,"Children",4
"929","Hard",0,"correct",0.9854,0,209,11,1,"Late","10¢",12.3698630136986,12,"Children",4
"930","Hard",0,"correct",0.8334,0,210,11,1,"Late","10¢",12.3698630136986,12,"Children",4
"931","Hard",1,"correct",0.6303,0,211,11,1,"Late","10¢",12.3698630136986,12,"Children",4
"932","Hard",1,"correct",1.132,0,212,11,1,"Late","10¢",12.3698630136986,12,"Children",4
"933","Hard",0,"correct",0.8966,0,213,11,1,"Late","10¢",12.3698630136986,12,"Children",4
"934","Hard",0,"correct",1.2313,0,214,11,1,"Late","10¢",12.3698630136986,12,"Children",4
"935","Hard",1,"correct",0.7384,0,215,11,1,"Late","10¢",12.3698630136986,12,"Children",4
"936","Hard",0,"correct",0.6647,0,216,11,1,"Late","10¢",12.3698630136986,12,"Children",4
"937","Hard",0,"correct",0.8169,0,217,11,1,"Late","10¢",12.3698630136986,12,"Children",4
"938","Hard",1,"correct",0.9984,0,218,11,1,"Late","10¢",12.3698630136986,12,"Children",4
"939","Hard",0,"correct",0.814,0,219,11,1,"Late","10¢",12.3698630136986,12,"Children",4
"940","Hard",1,"correct",0.7119,0,220,11,1,"Late","10¢",12.3698630136986,12,"Children",4
"941","Hard",0,"correct",0.8926,0,221,12,1,"Late","1¢",12.3698630136986,12,"Children",4
"942","Hard",1,"correct",1.1187,0,222,12,1,"Late","1¢",12.3698630136986,12,"Children",4
"943","Hard",0,"correct",0.9828,0,223,12,1,"Late","1¢",12.3698630136986,12,"Children",4
"944","Hard",0,"correct",0.6074,0,224,12,1,"Late","1¢",12.3698630136986,12,"Children",4
"945","Hard",1,"correct",1.4119,0,225,12,1,"Late","1¢",12.3698630136986,12,"Children",4
"946","Hard",0,"correct",0.8013,0,226,12,1,"Late","1¢",12.3698630136986,12,"Children",4
"947","Hard",1,"correct",1.1865,0,227,12,1,"Late","1¢",12.3698630136986,12,"Children",4
"948","Hard",0,"correct",0.8776,0,228,12,1,"Late","1¢",12.3698630136986,12,"Children",4
"949","Hard",0,"correct",0.6932,0,229,12,1,"Late","1¢",12.3698630136986,12,"Children",4
"950","Hard",1,"correct",0.55,0,230,12,1,"Late","1¢",12.3698630136986,12,"Children",4
"951","Hard",0,"incorrect",0.7541,0,231,12,0,"Late","1¢",12.3698630136986,12,"Children",4
"952","Hard",1,"correct",1.2094,0,232,12,1,"Late","1¢",12.3698630136986,12,"Children",4
"953","Hard",1,"correct",1.1343,0,233,12,1,"Late","1¢",12.3698630136986,12,"Children",4
"954","Hard",0,"correct",0.7281,0,234,12,1,"Late","1¢",12.3698630136986,12,"Children",4
"955","Hard",0,"correct",0.661,0,235,12,1,"Late","1¢",12.3698630136986,12,"Children",4
"956","Hard",0,"correct",0.6476,0,236,12,1,"Late","1¢",12.3698630136986,12,"Children",4
"957","Hard",1,"correct",0.9045,0,237,12,1,"Late","1¢",12.3698630136986,12,"Children",4
"958","Hard",1,"correct",0.7357,0,238,12,1,"Late","1¢",12.3698630136986,12,"Children",4
"959","Hard",1,"correct",0.8495,0,239,12,1,"Late","1¢",12.3698630136986,12,"Children",4
"960","Hard",1,"correct",1.0285,0,240,12,1,"Late","1¢",12.3698630136986,12,"Children",4
"961","Easy",0,"correct",0.7924,0,1,1,1,"Early","10¢",17.027397260274,17,"Adolescents",5
"962","Easy",0,"correct",0.5108,0,2,1,1,"Early","10¢",17.027397260274,17,"Adolescents",5
"963","Easy",0,"correct",0.4072,0,3,1,1,"Early","10¢",17.027397260274,17,"Adolescents",5
"964","Easy",0,"correct",0.3716,0,4,1,1,"Early","10¢",17.027397260274,17,"Adolescents",5
"965","Easy",1,"correct",0.8589,0,5,1,1,"Early","10¢",17.027397260274,17,"Adolescents",5
"966","Easy",0,"correct",0.9388,0,6,1,1,"Early","10¢",17.027397260274,17,"Adolescents",5
"967","Easy",0,"correct",0.6398,0,7,1,1,"Early","10¢",17.027397260274,17,"Adolescents",5
"968","Easy",0,"correct",0.5489,0,8,1,1,"Early","10¢",17.027397260274,17,"Adolescents",5
"969","Easy",1,"correct",0.708,0,9,1,1,"Early","10¢",17.027397260274,17,"Adolescents",5
"970","Easy",0,"correct",0.5382,0,10,1,1,"Early","10¢",17.027397260274,17,"Adolescents",5
"971","Easy",0,"correct",0.6027,0,11,1,1,"Early","10¢",17.027397260274,17,"Adolescents",5
"972","Easy",1,"correct",0.7316,0,12,1,1,"Early","10¢",17.027397260274,17,"Adolescents",5
"973","Easy",0,"correct",0.6546,0,13,1,1,"Early","10¢",17.027397260274,17,"Adolescents",5
"974","Easy",0,"correct",0.5229,0,14,1,1,"Early","10¢",17.027397260274,17,"Adolescents",5
"975","Easy",0,"correct",0.5174,0,15,1,1,"Early","10¢",17.027397260274,17,"Adolescents",5
"976","Easy",0,"correct",0.5329,0,16,1,1,"Early","10¢",17.027397260274,17,"Adolescents",5
"977","Easy",1,"correct",0.5455,0,17,1,1,"Early","10¢",17.027397260274,17,"Adolescents",5
"978","Easy",0,"correct",0.5433,0,18,1,1,"Early","10¢",17.027397260274,17,"Adolescents",5
"979","Easy",0,"correct",0.4924,0,19,1,1,"Early","10¢",17.027397260274,17,"Adolescents",5
"980","Easy",0,"correct",0.4385,0,20,1,1,"Early","10¢",17.027397260274,17,"Adolescents",5
"981","Easy",0,"correct",0.6325,0,21,2,1,"Early","1¢",17.027397260274,17,"Adolescents",5
"982","Easy",0,"correct",0.4186,0,22,2,1,"Early","1¢",17.027397260274,17,"Adolescents",5
"983","Easy",0,"correct",0.4956,0,23,2,1,"Early","1¢",17.027397260274,17,"Adolescents",5
"984","Easy",0,"correct",0.4293,0,24,2,1,"Early","1¢",17.027397260274,17,"Adolescents",5
"985","Easy",0,"correct",0.5466,0,25,2,1,"Early","1¢",17.027397260274,17,"Adolescents",5
"986","Easy",1,"incorrect",0.436,0,26,2,0,"Early","1¢",17.027397260274,17,"Adolescents",5
"987","Easy",0,"correct",0.6601,0,27,2,1,"Early","1¢",17.027397260274,17,"Adolescents",5
"988","Easy",0,"correct",0.648,0,28,2,1,"Early","1¢",17.027397260274,17,"Adolescents",5
"989","Easy",0,"correct",0.6434,0,29,2,1,"Early","1¢",17.027397260274,17,"Adolescents",5
"990","Easy",0,"correct",0.6844,0,30,2,1,"Early","1¢",17.027397260274,17,"Adolescents",5
"991","Easy",0,"correct",0.641,0,31,2,1,"Early","1¢",17.027397260274,17,"Adolescents",5
"992","Easy",0,"correct",0.6947,0,32,2,1,"Early","1¢",17.027397260274,17,"Adolescents",5
"993","Easy",1,"correct",0.6497,0,33,2,1,"Early","1¢",17.027397260274,17,"Adolescents",5
"994","Easy",0,"correct",0.5092,0,34,2,1,"Early","1¢",17.027397260274,17,"Adolescents",5
"995","Easy",1,"correct",0.5612,0,35,2,1,"Early","1¢",17.027397260274,17,"Adolescents",5
"996","Easy",0,"correct",0.7303,0,36,2,1,"Early","1¢",17.027397260274,17,"Adolescents",5
"997","Easy",0,"correct",0.6412,0,37,2,1,"Early","1¢",17.027397260274,17,"Adolescents",5
"998","Easy",1,"correct",0.7346,0,38,2,1,"Early","1¢",17.027397260274,17,"Adolescents",5
"999","Easy",0,"correct",0.5676,0,39,2,1,"Early","1¢",17.027397260274,17,"Adolescents",5
"1000","Easy",0,"correct",0.484,0,40,2,1,"Early","1¢",17.027397260274,17,"Adolescents",5
"1001","Hard",0,"correct",0.6402,0,41,3,1,"Early","10¢",17.027397260274,17,"Adolescents",5
"1002","Hard",1,"correct",0.8635,0,42,3,1,"Early","10¢",17.027397260274,17,"Adolescents",5
"1003","Hard",0,"correct",0.7813,0,43,3,1,"Early","10¢",17.027397260274,17,"Adolescents",5
"1004","Hard",1,"correct",0.4964,0,44,3,1,"Early","10¢",17.027397260274,17,"Adolescents",5
"1005","Hard",1,"correct",0.882,0,45,3,1,"Early","10¢",17.027397260274,17,"Adolescents",5
"1006","Hard",1,"correct",0.6175,0,46,3,1,"Early","10¢",17.027397260274,17,"Adolescents",5
"1007","Hard",1,"correct",0.6747,0,47,3,1,"Early","10¢",17.027397260274,17,"Adolescents",5
"1008","Hard",1,"correct",0.5418,0,48,3,1,"Early","10¢",17.027397260274,17,"Adolescents",5
"1009","Hard",0,"correct",0.5578,0,49,3,1,"Early","10¢",17.027397260274,17,"Adolescents",5
"1010","Hard",0,"correct",0.4565,0,50,3,1,"Early","10¢",17.027397260274,17,"Adolescents",5
"1011","Hard",0,"correct",0.4852,0,51,3,1,"Early","10¢",17.027397260274,17,"Adolescents",5
"1012","Hard",1,"correct",0.6555,0,52,3,1,"Early","10¢",17.027397260274,17,"Adolescents",5
"1013","Hard",0,"correct",0.4666,0,53,3,1,"Early","10¢",17.027397260274,17,"Adolescents",5
"1014","Hard",0,"incorrect",0.5687,0,54,3,0,"Early","10¢",17.027397260274,17,"Adolescents",5
"1015","Hard",1,"correct",0.5965,0,55,3,1,"Early","10¢",17.027397260274,17,"Adolescents",5
"1016","Hard",0,"correct",0.7681,0,56,3,1,"Early","10¢",17.027397260274,17,"Adolescents",5
"1017","Hard",0,"correct",0.7132,0,57,3,1,"Early","10¢",17.027397260274,17,"Adolescents",5
"1018","Hard",1,"correct",0.7397,0,58,3,1,"Early","10¢",17.027397260274,17,"Adolescents",5
"1019","Hard",1,"correct",0.5623,0,59,3,1,"Early","10¢",17.027397260274,17,"Adolescents",5
"1020","Hard",0,"correct",0.5745,0,60,3,1,"Early","10¢",17.027397260274,17,"Adolescents",5
"1021","Hard",0,"correct",0.7781,0,61,4,1,"Early","1¢",17.027397260274,17,"Adolescents",5
"1022","Hard",1,"correct",0.8327,0,62,4,1,"Early","1¢",17.027397260274,17,"Adolescents",5
"1023","Hard",0,"correct",0.7616,0,63,4,1,"Early","1¢",17.027397260274,17,"Adolescents",5
"1024","Hard",1,"correct",0.7092,0,64,4,1,"Early","1¢",17.027397260274,17,"Adolescents",5
"1025","Hard",1,"correct",0.5908,0,65,4,1,"Early","1¢",17.027397260274,17,"Adolescents",5
"1026","Hard",1,"correct",0.6586,0,66,4,1,"Early","1¢",17.027397260274,17,"Adolescents",5
"1027","Hard",1,"correct",0.6681,0,67,4,1,"Early","1¢",17.027397260274,17,"Adolescents",5
"1028","Hard",1,"correct",0.7552,0,68,4,1,"Early","1¢",17.027397260274,17,"Adolescents",5
"1029","Hard",0,"correct",0.6135,0,69,4,1,"Early","1¢",17.027397260274,17,"Adolescents",5
"1030","Hard",1,"correct",0.7283,0,70,4,1,"Early","1¢",17.027397260274,17,"Adolescents",5
"1031","Hard",0,"correct",0.586,0,71,4,1,"Early","1¢",17.027397260274,17,"Adolescents",5
"1032","Hard",0,"correct",0.5846,0,72,4,1,"Early","1¢",17.027397260274,17,"Adolescents",5
"1033","Hard",0,"correct",0.6464,0,73,4,1,"Early","1¢",17.027397260274,17,"Adolescents",5
"1034","Hard",1,"correct",0.6287,0,74,4,1,"Early","1¢",17.027397260274,17,"Adolescents",5
"1035","Hard",0,"correct",0.5502,0,75,4,1,"Early","1¢",17.027397260274,17,"Adolescents",5
"1036","Hard",1,"correct",0.5824,0,76,4,1,"Early","1¢",17.027397260274,17,"Adolescents",5
"1037","Hard",0,"correct",0.6539,0,77,4,1,"Early","1¢",17.027397260274,17,"Adolescents",5
"1038","Hard",1,"correct",0.5226,0,78,4,1,"Early","1¢",17.027397260274,17,"Adolescents",5
"1039","Hard",0,"correct",0.4703,0,79,4,1,"Early","1¢",17.027397260274,17,"Adolescents",5
"1040","Hard",0,"correct",0.55,0,80,4,1,"Early","1¢",17.027397260274,17,"Adolescents",5
"1041","Easy",0,"correct",0.6251,0,81,5,1,"Middle","1¢",17.027397260274,17,"Adolescents",5
"1042","Easy",0,"correct",0.4118,0,82,5,1,"Middle","1¢",17.027397260274,17,"Adolescents",5
"1043","Easy",0,"correct",0.4702,0,83,5,1,"Middle","1¢",17.027397260274,17,"Adolescents",5
"1044","Easy",0,"correct",0.4977,0,84,5,1,"Middle","1¢",17.027397260274,17,"Adolescents",5
"1045","Easy",0,"correct",0.4258,0,85,5,1,"Middle","1¢",17.027397260274,17,"Adolescents",5
"1046","Easy",1,"correct",0.8524,0,86,5,1,"Middle","1¢",17.027397260274,17,"Adolescents",5
"1047","Easy",0,"correct",0.6642,0,87,5,1,"Middle","1¢",17.027397260274,17,"Adolescents",5
"1048","Easy",1,"correct",0.5773,0,88,5,1,"Middle","1¢",17.027397260274,17,"Adolescents",5
"1049","Easy",0,"correct",0.551,0,89,5,1,"Middle","1¢",17.027397260274,17,"Adolescents",5
"1050","Easy",0,"correct",0.4555,0,90,5,1,"Middle","1¢",17.027397260274,17,"Adolescents",5
"1051","Easy",0,"correct",0.4415,0,91,5,1,"Middle","1¢",17.027397260274,17,"Adolescents",5
"1052","Easy",0,"correct",0.4251,0,92,5,1,"Middle","1¢",17.027397260274,17,"Adolescents",5
"1053","Easy",0,"correct",0.5457,0,93,5,1,"Middle","1¢",17.027397260274,17,"Adolescents",5
"1054","Easy",0,"correct",0.5187,0,94,5,1,"Middle","1¢",17.027397260274,17,"Adolescents",5
"1055","Easy",0,"correct",0.4454,0,95,5,1,"Middle","1¢",17.027397260274,17,"Adolescents",5
"1056","Easy",1,"correct",0.7825,0,96,5,1,"Middle","1¢",17.027397260274,17,"Adolescents",5
"1057","Easy",1,"correct",0.5868,0,97,5,1,"Middle","1¢",17.027397260274,17,"Adolescents",5
"1058","Easy",0,"correct",0.475,0,98,5,1,"Middle","1¢",17.027397260274,17,"Adolescents",5
"1059","Easy",0,"correct",0.3873,0,99,5,1,"Middle","1¢",17.027397260274,17,"Adolescents",5
"1060","Easy",0,"correct",0.514,0,100,5,1,"Middle","1¢",17.027397260274,17,"Adolescents",5
"1061","Easy",0,"correct",0.6691,0,101,6,1,"Middle","10¢",17.027397260274,17,"Adolescents",5
"1062","Easy",0,"correct",0.418,0,102,6,1,"Middle","10¢",17.027397260274,17,"Adolescents",5
"1063","Easy",0,"correct",0.4266,0,103,6,1,"Middle","10¢",17.027397260274,17,"Adolescents",5
"1064","Easy",0,"incorrect",0.3989,0,104,6,0,"Middle","10¢",17.027397260274,17,"Adolescents",5
"1065","Easy",1,"correct",0.7523,0,105,6,1,"Middle","10¢",17.027397260274,17,"Adolescents",5
"1066","Easy",0,"correct",0.6903,0,106,6,1,"Middle","10¢",17.027397260274,17,"Adolescents",5
"1067","Easy",0,"incorrect",0.4927,0,107,6,0,"Middle","10¢",17.027397260274,17,"Adolescents",5
"1068","Easy",0,"correct",0.5515,0,108,6,1,"Middle","10¢",17.027397260274,17,"Adolescents",5
"1069","Easy",0,"correct",0.667,0,109,6,1,"Middle","10¢",17.027397260274,17,"Adolescents",5
"1070","Easy",1,"correct",0.7501,0,110,6,1,"Middle","10¢",17.027397260274,17,"Adolescents",5
"1071","Easy",0,"correct",0.5881,0,111,6,1,"Middle","10¢",17.027397260274,17,"Adolescents",5
"1072","Easy",0,"correct",0.533,0,112,6,1,"Middle","10¢",17.027397260274,17,"Adolescents",5
"1073","Easy",0,"correct",0.5048,0,113,6,1,"Middle","10¢",17.027397260274,17,"Adolescents",5
"1074","Easy",1,"correct",0.6095,0,114,6,1,"Middle","10¢",17.027397260274,17,"Adolescents",5
"1075","Easy",0,"correct",0.7589,0,115,6,1,"Middle","10¢",17.027397260274,17,"Adolescents",5
"1076","Easy",0,"correct",0.6309,0,116,6,1,"Middle","10¢",17.027397260274,17,"Adolescents",5
"1077","Easy",0,"correct",0.603,0,117,6,1,"Middle","10¢",17.027397260274,17,"Adolescents",5
"1078","Easy",0,"correct",0.592,0,118,6,1,"Middle","10¢",17.027397260274,17,"Adolescents",5
"1079","Easy",0,"correct",0.5907,0,119,6,1,"Middle","10¢",17.027397260274,17,"Adolescents",5
"1080","Easy",1,"correct",0.791,0,120,6,1,"Middle","10¢",17.027397260274,17,"Adolescents",5
"1081","Hard",0,"correct",0.6139,0,121,7,1,"Middle","1¢",17.027397260274,17,"Adolescents",5
"1082","Hard",0,"correct",0.5333,0,122,7,1,"Middle","1¢",17.027397260274,17,"Adolescents",5
"1083","Hard",1,"correct",0.6688,0,123,7,1,"Middle","1¢",17.027397260274,17,"Adolescents",5
"1084","Hard",0,"correct",0.5477,0,124,7,1,"Middle","1¢",17.027397260274,17,"Adolescents",5
"1085","Hard",0,"correct",0.541,0,125,7,1,"Middle","1¢",17.027397260274,17,"Adolescents",5
"1086","Hard",1,"correct",0.5275,0,126,7,1,"Middle","1¢",17.027397260274,17,"Adolescents",5
"1087","Hard",1,"correct",0.744,0,127,7,1,"Middle","1¢",17.027397260274,17,"Adolescents",5
"1088","Hard",0,"correct",0.6808,0,128,7,1,"Middle","1¢",17.027397260274,17,"Adolescents",5
"1089","Hard",0,"correct",0.7062,0,129,7,1,"Middle","1¢",17.027397260274,17,"Adolescents",5
"1090","Hard",1,"correct",0.6299,0,130,7,1,"Middle","1¢",17.027397260274,17,"Adolescents",5
"1091","Hard",0,"correct",0.6095,0,131,7,1,"Middle","1¢",17.027397260274,17,"Adolescents",5
"1092","Hard",1,"correct",0.8331,0,132,7,1,"Middle","1¢",17.027397260274,17,"Adolescents",5
"1093","Hard",1,"correct",0.6205,0,133,7,1,"Middle","1¢",17.027397260274,17,"Adolescents",5
"1094","Hard",1,"correct",0.8317,0,134,7,1,"Middle","1¢",17.027397260274,17,"Adolescents",5
"1095","Hard",0,"correct",0.5965,0,135,7,1,"Middle","1¢",17.027397260274,17,"Adolescents",5
"1096","Hard",1,"correct",0.4523,0,136,7,1,"Middle","1¢",17.027397260274,17,"Adolescents",5
"1097","Hard",0,"correct",0.5394,0,137,7,1,"Middle","1¢",17.027397260274,17,"Adolescents",5
"1098","Hard",1,"correct",0.722,0,138,7,1,"Middle","1¢",17.027397260274,17,"Adolescents",5
"1099","Hard",0,"correct",0.6706,0,139,7,1,"Middle","1¢",17.027397260274,17,"Adolescents",5
"1100","Hard",1,"correct",0.5798,0,140,7,1,"Middle","1¢",17.027397260274,17,"Adolescents",5
"1101","Hard",0,"correct",0.5745,0,141,8,1,"Middle","10¢",17.027397260274,17,"Adolescents",5
"1102","Hard",0,"correct",0.4503,0,142,8,1,"Middle","10¢",17.027397260274,17,"Adolescents",5
"1103","Hard",1,"correct",0.4899,0,143,8,1,"Middle","10¢",17.027397260274,17,"Adolescents",5
"1104","Hard",1,"correct",0.5011,0,144,8,1,"Middle","10¢",17.027397260274,17,"Adolescents",5
"1105","Hard",0,"correct",0.4777,0,145,8,1,"Middle","10¢",17.027397260274,17,"Adolescents",5
"1106","Hard",1,"correct",0.6638,0,146,8,1,"Middle","10¢",17.027397260274,17,"Adolescents",5
"1107","Hard",1,"correct",0.5498,0,147,8,1,"Middle","10¢",17.027397260274,17,"Adolescents",5
"1108","Hard",1,"correct",0.9147,0,148,8,1,"Middle","10¢",17.027397260274,17,"Adolescents",5
"1109","Hard",0,"correct",0.8378,0,149,8,1,"Middle","10¢",17.027397260274,17,"Adolescents",5
"1110","Hard",0,"correct",0.6098,0,150,8,1,"Middle","10¢",17.027397260274,17,"Adolescents",5
"1111","Hard",0,"correct",0.6176,0,151,8,1,"Middle","10¢",17.027397260274,17,"Adolescents",5
"1112","Hard",1,"correct",0.5811,0,152,8,1,"Middle","10¢",17.027397260274,17,"Adolescents",5
"1113","Hard",0,"correct",0.6028,0,153,8,1,"Middle","10¢",17.027397260274,17,"Adolescents",5
"1114","Hard",0,"correct",0.4324,0,154,8,1,"Middle","10¢",17.027397260274,17,"Adolescents",5
"1115","Hard",0,"correct",0.6728,0,155,8,1,"Middle","10¢",17.027397260274,17,"Adolescents",5
"1116","Hard",0,"correct",0.5052,0,156,8,1,"Middle","10¢",17.027397260274,17,"Adolescents",5
"1117","Hard",1,"incorrect",0.5773,0,157,8,0,"Middle","10¢",17.027397260274,17,"Adolescents",5
"1118","Hard",1,"correct",0.6052,0,158,8,1,"Middle","10¢",17.027397260274,17,"Adolescents",5
"1119","Hard",1,"correct",0.6856,0,159,8,1,"Middle","10¢",17.027397260274,17,"Adolescents",5
"1120","Hard",1,"correct",0.5812,0,160,8,1,"Middle","10¢",17.027397260274,17,"Adolescents",5
"1121","Easy",0,"correct",0.8119,0,161,9,1,"Late","10¢",17.027397260274,17,"Adolescents",5
"1122","Easy",0,"correct",0.5554,0,162,9,1,"Late","10¢",17.027397260274,17,"Adolescents",5
"1123","Easy",1,"too_slow",NA,1,163,9,NA,"Late","10¢",17.027397260274,17,"Adolescents",5
"1124","Easy",0,"correct",0.6469,0,164,9,1,"Late","10¢",17.027397260274,17,"Adolescents",5
"1125","Easy",1,"correct",0.5424,0,165,9,1,"Late","10¢",17.027397260274,17,"Adolescents",5
"1126","Easy",0,"correct",0.4529,0,166,9,1,"Late","10¢",17.027397260274,17,"Adolescents",5
"1127","Easy",0,"correct",0.5875,0,167,9,1,"Late","10¢",17.027397260274,17,"Adolescents",5
"1128","Easy",0,"correct",0.632,0,168,9,1,"Late","10¢",17.027397260274,17,"Adolescents",5
"1129","Easy",0,"correct",0.5103,0,169,9,1,"Late","10¢",17.027397260274,17,"Adolescents",5
"1130","Easy",0,"correct",0.575,0,170,9,1,"Late","10¢",17.027397260274,17,"Adolescents",5
