"","trial_type","do_switch","resp_type","keyTrial.rt","trial_num","block_num","correct","ExactAge","FlooredAge","AgeGroup","participant"
"1","low_switch",0,"too_slow",NA,1,1,NA,20.3780821917808,20,"Adults",1
"2","low_switch",0,"correct",0.6679,2,1,1,20.3780821917808,20,"Adults",1
"3","low_switch",0,"correct",0.9337,3,1,1,20.3780821917808,20,"Adults",1
"4","low_switch",0,"correct",0.7525,4,1,1,20.3780821917808,20,"Adults",1
"5","low_switch",0,"correct",0.8345,5,1,1,20.3780821917808,20,"Adults",1
"6","low_switch",0,"correct",0.6681,6,1,1,20.3780821917808,20,"Adults",1
"7","low_switch",0,"correct",0.7002,7,1,1,20.3780821917808,20,"Adults",1
"8","low_switch",0,"correct",0.6671,8,1,1,20.3780821917808,20,"Adults",1
"9","low_switch",0,"correct",0.8176,9,1,1,20.3780821917808,20,"Adults",1
"10","low_switch",0,"correct",0.5343,10,1,1,20.3780821917808,20,"Adults",1
"11","low_switch",0,"correct",0.5506,11,1,1,20.3780821917808,20,"Adults",1
"12","low_switch",0,"correct",0.5169,12,1,1,20.3780821917808,20,"Adults",1
"13","low_switch",1,"correct",0.9838,13,1,1,20.3780821917808,20,"Adults",1
"14","low_switch",0,"correct",0.668,14,1,1,20.3780821917808,20,"Adults",1
"15","low_switch",1,"correct",1.0676,15,1,1,20.3780821917808,20,"Adults",1
"16","low_switch",1,"correct",0.868,16,1,1,20.3780821917808,20,"Adults",1
"17","low_switch",0,"correct",0.5996,17,1,1,20.3780821917808,20,"Adults",1
"18","low_switch",0,"correct",0.6844,18,1,1,20.3780821917808,20,"Adults",1
"19","low_switch",1,"correct",0.9014,19,1,1,20.3780821917808,20,"Adults",1
"20","low_switch",0,"correct",0.6169,20,1,1,20.3780821917808,20,"Adults",1
"21","low_switch",0,"correct",0.6191,21,1,1,20.3780821917808,20,"Adults",1
"22","low_switch",0,"correct",0.5349,22,1,1,20.3780821917808,20,"Adults",1
"23","low_switch",1,"correct",0.9339,23,1,1,20.3780821917808,20,"Adults",1
"24","low_switch",0,"correct",0.5005,24,1,1,20.3780821917808,20,"Adults",1
"25","low_switch",0,"correct",0.6176,25,1,1,20.3780821917808,20,"Adults",1
"26","low_switch",0,"correct",0.6002,26,1,1,20.3780821917808,20,"Adults",1
"27","low_switch",0,"correct",0.4342,27,1,1,20.3780821917808,20,"Adults",1
"28","low_switch",0,"correct",0.4671,28,1,1,20.3780821917808,20,"Adults",1
"29","low_switch",1,"correct",0.7182,29,1,1,20.3780821917808,20,"Adults",1
"30","low_switch",0,"correct",0.5678,30,1,1,20.3780821917808,20,"Adults",1
"31","high_switch",0,"correct",0.5505,31,2,1,20.3780821917808,20,"Adults",1
"32","high_switch",0,"correct",0.8337,32,2,1,20.3780821917808,20,"Adults",1
"33","high_switch",1,"correct",0.6337,33,2,1,20.3780821917808,20,"Adults",1
"34","high_switch",0,"correct",0.5165,34,2,1,20.3780821917808,20,"Adults",1
"35","high_switch",1,"correct",0.7012,35,2,1,20.3780821917808,20,"Adults",1
"36","high_switch",0,"correct",0.5345,36,2,1,20.3780821917808,20,"Adults",1
"37","high_switch",1,"correct",0.4997,37,2,1,20.3780821917808,20,"Adults",1
"38","high_switch",1,"correct",0.667,38,2,1,20.3780821917808,20,"Adults",1
"39","high_switch",1,"correct",1.0512,39,2,1,20.3780821917808,20,"Adults",1
"40","high_switch",1,"correct",0.6338,40,2,1,20.3780821917808,20,"Adults",1
"41","high_switch",1,"correct",0.55,41,2,1,20.3780821917808,20,"Adults",1
"42","high_switch",0,"correct",0.5179,42,2,1,20.3780821917808,20,"Adults",1
"43","high_switch",0,"correct",0.8174,43,2,1,20.3780821917808,20,"Adults",1
"44","high_switch",1,"correct",0.9011,44,2,1,20.3780821917808,20,"Adults",1
"45","high_switch",0,"correct",0.6005,45,2,1,20.3780821917808,20,"Adults",1
"46","high_switch",0,"correct",0.5668,46,2,1,20.3780821917808,20,"Adults",1
"47","high_switch",1,"correct",0.6831,47,2,1,20.3780821917808,20,"Adults",1
"48","high_switch",1,"correct",0.5336,48,2,1,20.3780821917808,20,"Adults",1
"49","high_switch",0,"correct",0.501,49,2,1,20.3780821917808,20,"Adults",1
"50","high_switch",1,"correct",0.4677,50,2,1,20.3780821917808,20,"Adults",1
"51","high_switch",1,"correct",0.6685,51,2,1,20.3780821917808,20,"Adults",1
"52","high_switch",0,"correct",0.5848,52,2,1,20.3780821917808,20,"Adults",1
"53","high_switch",1,"correct",0.5676,53,2,1,20.3780821917808,20,"Adults",1
"54","high_switch",1,"correct",0.7845,54,2,1,20.3780821917808,20,"Adults",1
"55","high_switch",0,"correct",0.5006,55,2,1,20.3780821917808,20,"Adults",1
"56","high_switch",0,"correct",0.567,56,2,1,20.3780821917808,20,"Adults",1
"57","high_switch",1,"correct",0.567,57,2,1,20.3780821917808,20,"Adults",1
"58","high_switch",0,"correct",0.6011,58,2,1,20.3780821917808,20,"Adults",1
"59","high_switch",0,"correct",0.4839,59,2,1,20.3780821917808,20,"Adults",1
"60","high_switch",0,"correct",0.4674,60,2,1,20.3780821917808,20,"Adults",1
"61","low_switch",0,"correct",0.7841,61,3,1,20.3780821917808,20,"Adults",1
"62","low_switch",1,"correct",0.6014,62,3,1,20.3780821917808,20,"Adults",1
"63","low_switch",1,"correct",0.7845,63,3,1,20.3780821917808,20,"Adults",1
"64","low_switch",0,"correct",0.4673,64,3,1,20.3780821917808,20,"Adults",1
"65","low_switch",0,"correct",0.4675,65,3,1,20.3780821917808,20,"Adults",1
"66","low_switch",0,"correct",0.568,66,3,1,20.3780821917808,20,"Adults",1
"67","low_switch",0,"correct",0.4494,67,3,1,20.3780821917808,20,"Adults",1
"68","low_switch",0,"correct",0.4678,68,3,1,20.3780821917808,20,"Adults",1
"69","low_switch",0,"correct",0.4502,69,3,1,20.3780821917808,20,"Adults",1
"70","low_switch",0,"correct",0.4007,70,3,1,20.3780821917808,20,"Adults",1
"71","low_switch",0,"correct",0.4349,71,3,1,20.3780821917808,20,"Adults",1
"72","low_switch",0,"correct",0.5344,72,3,1,20.3780821917808,20,"Adults",1
"73","low_switch",0,"correct",0.4675,73,3,1,20.3780821917808,20,"Adults",1
"74","low_switch",0,"correct",0.4008,74,3,1,20.3780821917808,20,"Adults",1
"75","low_switch",0,"correct",0.4003,75,3,1,20.3780821917808,20,"Adults",1
"76","low_switch",0,"correct",0.4008,76,3,1,20.3780821917808,20,"Adults",1
"77","low_switch",0,"correct",0.4179,77,3,1,20.3780821917808,20,"Adults",1
"78","low_switch",0,"correct",0.4667,78,3,1,20.3780821917808,20,"Adults",1
"79","low_switch",0,"correct",0.6172,79,3,1,20.3780821917808,20,"Adults",1
"80","low_switch",0,"correct",0.4007,80,3,1,20.3780821917808,20,"Adults",1
"81","low_switch",0,"correct",0.368,81,3,1,20.3780821917808,20,"Adults",1
"82","low_switch",0,"correct",0.6513,82,3,1,20.3780821917808,20,"Adults",1
"83","low_switch",1,"correct",0.8501,83,3,1,20.3780821917808,20,"Adults",1
"84","low_switch",1,"correct",0.634,84,3,1,20.3780821917808,20,"Adults",1
"85","low_switch",0,"correct",0.5347,85,3,1,20.3780821917808,20,"Adults",1
"86","low_switch",0,"correct",0.5007,86,3,1,20.3780821917808,20,"Adults",1
"87","low_switch",1,"correct",0.801,87,3,1,20.3780821917808,20,"Adults",1
"88","low_switch",1,"correct",0.6001,88,3,1,20.3780821917808,20,"Adults",1
"89","low_switch",0,"correct",0.5515,89,3,1,20.3780821917808,20,"Adults",1
"90","low_switch",0,"correct",0.5015,90,3,1,20.3780821917808,20,"Adults",1
"91","high_switch",0,"correct",0.5007,91,4,1,20.3780821917808,20,"Adults",1
"92","high_switch",1,"correct",0.5173,92,4,1,20.3780821917808,20,"Adults",1
"93","high_switch",0,"correct",0.4172,93,4,1,20.3780821917808,20,"Adults",1
"94","high_switch",0,"correct",0.8508,94,4,1,20.3780821917808,20,"Adults",1
"95","high_switch",0,"correct",0.5845,95,4,1,20.3780821917808,20,"Adults",1
"96","high_switch",1,"correct",0.6351,96,4,1,20.3780821917808,20,"Adults",1
"97","high_switch",0,"correct",0.6507,97,4,1,20.3780821917808,20,"Adults",1
"98","high_switch",1,"correct",0.4678,98,4,1,20.3780821917808,20,"Adults",1
"99","high_switch",0,"correct",0.4336,99,4,1,20.3780821917808,20,"Adults",1
"100","high_switch",1,"correct",0.5498,100,4,1,20.3780821917808,20,"Adults",1
"101","high_switch",1,"correct",0.5673,101,4,1,20.3780821917808,20,"Adults",1
"102","high_switch",1,"correct",0.5339,102,4,1,20.3780821917808,20,"Adults",1
"103","high_switch",1,"correct",0.5178,103,4,1,20.3780821917808,20,"Adults",1
"104","high_switch",1,"correct",0.9176,104,4,1,20.3780821917808,20,"Adults",1
"105","high_switch",0,"correct",0.6329,105,4,1,20.3780821917808,20,"Adults",1
"106","high_switch",1,"correct",0.5514,106,4,1,20.3780821917808,20,"Adults",1
"107","high_switch",0,"correct",0.5676,107,4,1,20.3780821917808,20,"Adults",1
"108","high_switch",1,"correct",0.5846,108,4,1,20.3780821917808,20,"Adults",1
"109","high_switch",1,"correct",0.467,109,4,1,20.3780821917808,20,"Adults",1
"110","high_switch",0,"correct",0.4,110,4,1,20.3780821917808,20,"Adults",1
"111","high_switch",0,"correct",0.4675,111,4,1,20.3780821917808,20,"Adults",1
"112","high_switch",1,"correct",0.6505,112,4,1,20.3780821917808,20,"Adults",1
"113","high_switch",1,"correct",0.4833,113,4,1,20.3780821917808,20,"Adults",1
"114","high_switch",0,"correct",0.6667,114,4,1,20.3780821917808,20,"Adults",1
"115","high_switch",0,"correct",0.4836,115,4,1,20.3780821917808,20,"Adults",1
"116","high_switch",0,"correct",0.4006,116,4,1,20.3780821917808,20,"Adults",1
"117","high_switch",1,"correct",0.4677,117,4,1,20.3780821917808,20,"Adults",1
"118","high_switch",0,"correct",0.4848,118,4,1,20.3780821917808,20,"Adults",1
"119","high_switch",0,"correct",0.617,119,4,1,20.3780821917808,20,"Adults",1
"120","high_switch",1,"correct",0.401,120,4,1,20.3780821917808,20,"Adults",1
"121","low_switch",0,"too_slow",NA,1,1,NA,19.9780821917808,19,"Adults",2
"122","low_switch",0,"correct",0.864,2,1,1,19.9780821917808,19,"Adults",2
"123","low_switch",0,"correct",0.897,3,1,1,19.9780821917808,19,"Adults",2
"124","low_switch",0,"correct",0.7682,4,1,1,19.9780821917808,19,"Adults",2
"125","low_switch",0,"correct",0.7235,5,1,1,19.9780821917808,19,"Adults",2
"126","low_switch",0,"correct",0.5191,6,1,1,19.9780821917808,19,"Adults",2
"127","low_switch",1,"correct",1.0483,7,1,1,19.9780821917808,19,"Adults",2
"128","low_switch",0,"correct",0.5832,8,1,1,19.9780821917808,19,"Adults",2
"129","low_switch",1,"correct",0.9488,9,1,1,19.9780821917808,19,"Adults",2
"130","low_switch",0,"correct",0.6049,10,1,1,19.9780821917808,19,"Adults",2
"131","low_switch",1,"correct",0.5794,11,1,1,19.9780821917808,19,"Adults",2
"132","low_switch",0,"correct",0.5782,12,1,1,19.9780821917808,19,"Adults",2
"133","low_switch",0,"correct",0.6525,13,1,1,19.9780821917808,19,"Adults",2
"134","low_switch",1,"correct",0.9035,14,1,1,19.9780821917808,19,"Adults",2
"135","low_switch",0,"correct",0.5066,15,1,1,19.9780821917808,19,"Adults",2
"136","low_switch",0,"correct",0.5735,16,1,1,19.9780821917808,19,"Adults",2
"137","low_switch",0,"correct",0.6261,17,1,1,19.9780821917808,19,"Adults",2
"138","low_switch",0,"correct",0.5334,18,1,1,19.9780821917808,19,"Adults",2
"139","low_switch",1,"correct",0.7831,19,1,1,19.9780821917808,19,"Adults",2
"140","low_switch",0,"correct",0.4864,20,1,1,19.9780821917808,19,"Adults",2
"141","low_switch",0,"correct",0.6544,21,1,1,19.9780821917808,19,"Adults",2
"142","low_switch",0,"correct",0.5357,22,1,1,19.9780821917808,19,"Adults",2
"143","low_switch",1,"correct",0.7217,23,1,1,19.9780821917808,19,"Adults",2
"144","low_switch",0,"too_slow",NA,24,1,NA,19.9780821917808,19,"Adults",2
"145","low_switch",0,"correct",0.5733,25,1,1,19.9780821917808,19,"Adults",2
"146","low_switch",0,"correct",0.7793,26,1,1,19.9780821917808,19,"Adults",2
"147","low_switch",0,"correct",0.7429,27,1,1,19.9780821917808,19,"Adults",2
"148","low_switch",0,"correct",0.6637,28,1,1,19.9780821917808,19,"Adults",2
"149","low_switch",0,"correct",0.6325,29,1,1,19.9780821917808,19,"Adults",2
"150","low_switch",0,"correct",0.6418,30,1,1,19.9780821917808,19,"Adults",2
"151","high_switch",0,"correct",0.4905,31,2,1,19.9780821917808,19,"Adults",2
"152","high_switch",1,"correct",1.0023,32,2,1,19.9780821917808,19,"Adults",2
"153","high_switch",0,"correct",0.4556,33,2,1,19.9780821917808,19,"Adults",2
"154","high_switch",0,"correct",0.5186,34,2,1,19.9780821917808,19,"Adults",2
"155","high_switch",0,"correct",0.5323,35,2,1,19.9780821917808,19,"Adults",2
"156","high_switch",0,"correct",0.4823,36,2,1,19.9780821917808,19,"Adults",2
"157","high_switch",1,"correct",0.7895,37,2,1,19.9780821917808,19,"Adults",2
"158","high_switch",0,"correct",0.732,38,2,1,19.9780821917808,19,"Adults",2
"159","high_switch",1,"correct",0.7027,39,2,1,19.9780821917808,19,"Adults",2
"160","high_switch",0,"correct",0.4915,40,2,1,19.9780821917808,19,"Adults",2
"161","high_switch",1,"correct",0.6867,41,2,1,19.9780821917808,19,"Adults",2
"162","high_switch",1,"correct",0.605,42,2,1,19.9780821917808,19,"Adults",2
"163","high_switch",1,"too_slow",NA,43,2,NA,19.9780821917808,19,"Adults",2
"164","high_switch",1,"correct",0.6185,44,2,1,19.9780821917808,19,"Adults",2
"165","high_switch",1,"correct",0.7368,45,2,1,19.9780821917808,19,"Adults",2
"166","high_switch",0,"correct",0.7541,46,2,1,19.9780821917808,19,"Adults",2
"167","high_switch",0,"correct",0.9297,47,2,1,19.9780821917808,19,"Adults",2
"168","high_switch",1,"correct",0.5298,48,2,1,19.9780821917808,19,"Adults",2
"169","high_switch",1,"correct",0.6606,49,2,1,19.9780821917808,19,"Adults",2
"170","high_switch",1,"correct",0.5028,50,2,1,19.9780821917808,19,"Adults",2
"171","high_switch",0,"correct",0.5115,51,2,1,19.9780821917808,19,"Adults",2
"172","high_switch",0,"correct",0.4917,52,2,1,19.9780821917808,19,"Adults",2
"173","high_switch",1,"correct",0.5526,53,2,1,19.9780821917808,19,"Adults",2
"174","high_switch",0,"correct",0.8593,54,2,1,19.9780821917808,19,"Adults",2
"175","high_switch",1,"correct",0.5897,55,2,1,19.9780821917808,19,"Adults",2
"176","high_switch",1,"correct",0.936,56,2,1,19.9780821917808,19,"Adults",2
"177","high_switch",0,"correct",0.5554,57,2,1,19.9780821917808,19,"Adults",2
"178","high_switch",0,"correct",0.5931,58,2,1,19.9780821917808,19,"Adults",2
"179","high_switch",1,"correct",0.6906,59,2,1,19.9780821917808,19,"Adults",2
"180","high_switch",0,"correct",0.5578,60,2,1,19.9780821917808,19,"Adults",2
"181","low_switch",0,"correct",0.7753,61,3,1,19.9780821917808,19,"Adults",2
"182","low_switch",0,"correct",0.7888,62,3,1,19.9780821917808,19,"Adults",2
"183","low_switch",0,"correct",0.5743,63,3,1,19.9780821917808,19,"Adults",2
"184","low_switch",0,"correct",0.9394,64,3,1,19.9780821917808,19,"Adults",2
"185","low_switch",0,"correct",0.5903,65,3,1,19.9780821917808,19,"Adults",2
"186","low_switch",0,"correct",0.5981,66,3,1,19.9780821917808,19,"Adults",2
"187","low_switch",1,"correct",1.0756,67,3,1,19.9780821917808,19,"Adults",2
"188","low_switch",0,"correct",0.549,68,3,1,19.9780821917808,19,"Adults",2
"189","low_switch",0,"correct",0.5553,69,3,1,19.9780821917808,19,"Adults",2
"190","low_switch",1,"correct",0.7091,70,3,1,19.9780821917808,19,"Adults",2
"191","low_switch",0,"correct",0.7226,71,3,1,19.9780821917808,19,"Adults",2
"192","low_switch",0,"correct",0.5727,72,3,1,19.9780821917808,19,"Adults",2
"193","low_switch",0,"correct",0.6154,73,3,1,19.9780821917808,19,"Adults",2
"194","low_switch",0,"correct",0.6046,74,3,1,19.9780821917808,19,"Adults",2
"195","low_switch",0,"correct",0.6355,75,3,1,19.9780821917808,19,"Adults",2
"196","low_switch",1,"correct",0.5418,76,3,1,19.9780821917808,19,"Adults",2
"197","low_switch",0,"correct",0.4537,77,3,1,19.9780821917808,19,"Adults",2
"198","low_switch",0,"correct",0.5188,78,3,1,19.9780821917808,19,"Adults",2
"199","low_switch",0,"correct",0.4902,79,3,1,19.9780821917808,19,"Adults",2
"200","low_switch",1,"correct",0.6671,80,3,1,19.9780821917808,19,"Adults",2
"201","low_switch",0,"correct",0.5922,81,3,1,19.9780821917808,19,"Adults",2
"202","low_switch",0,"correct",0.5524,82,3,1,19.9780821917808,19,"Adults",2
"203","low_switch",0,"correct",0.8254,83,3,1,19.9780821917808,19,"Adults",2
"204","low_switch",0,"correct",0.6756,84,3,1,19.9780821917808,19,"Adults",2
"205","low_switch",1,"correct",0.5562,85,3,1,19.9780821917808,19,"Adults",2
"206","low_switch",0,"correct",0.6587,86,3,1,19.9780821917808,19,"Adults",2
"207","low_switch",0,"correct",0.6375,87,3,1,19.9780821917808,19,"Adults",2
"208","low_switch",0,"correct",0.5867,88,3,1,19.9780821917808,19,"Adults",2
"209","low_switch",1,"correct",0.5838,89,3,1,19.9780821917808,19,"Adults",2
"210","low_switch",0,"correct",0.5726,90,3,1,19.9780821917808,19,"Adults",2
"211","high_switch",0,"correct",0.5541,91,4,1,19.9780821917808,19,"Adults",2
"212","high_switch",0,"correct",0.4657,92,4,1,19.9780821917808,19,"Adults",2
"213","high_switch",0,"correct",0.5677,93,4,1,19.9780821917808,19,"Adults",2
"214","high_switch",0,"correct",0.5474,94,4,1,19.9780821917808,19,"Adults",2
"215","high_switch",1,"correct",0.5684,95,4,1,19.9780821917808,19,"Adults",2
"216","high_switch",0,"correct",0.6189,96,4,1,19.9780821917808,19,"Adults",2
"217","high_switch",1,"correct",0.6377,97,4,1,19.9780821917808,19,"Adults",2
"218","high_switch",0,"correct",0.6344,98,4,1,19.9780821917808,19,"Adults",2
"219","high_switch",0,"correct",0.8239,99,4,1,19.9780821917808,19,"Adults",2
"220","high_switch",1,"correct",0.5337,100,4,1,19.9780821917808,19,"Adults",2
"221","high_switch",1,"correct",0.5388,101,4,1,19.9780821917808,19,"Adults",2
"222","high_switch",1,"correct",0.4678,102,4,1,19.9780821917808,19,"Adults",2
"223","high_switch",1,"correct",0.6561,103,4,1,19.9780821917808,19,"Adults",2
"224","high_switch",0,"correct",0.5101,104,4,1,19.9780821917808,19,"Adults",2
"225","high_switch",0,"correct",0.539,105,4,1,19.9780821917808,19,"Adults",2
"226","high_switch",1,"correct",0.5548,106,4,1,19.9780821917808,19,"Adults",2
"227","high_switch",0,"correct",0.4731,107,4,1,19.9780821917808,19,"Adults",2
"228","high_switch",0,"correct",0.4842,108,4,1,19.9780821917808,19,"Adults",2
"229","high_switch",1,"correct",0.6674,109,4,1,19.9780821917808,19,"Adults",2
"230","high_switch",0,"correct",0.6307,110,4,1,19.9780821917808,19,"Adults",2
"231","high_switch",0,"correct",0.5321,111,4,1,19.9780821917808,19,"Adults",2
"232","high_switch",0,"correct",0.5035,112,4,1,19.9780821917808,19,"Adults",2
"233","high_switch",1,"correct",0.5692,113,4,1,19.9780821917808,19,"Adults",2
"234","high_switch",0,"correct",0.487,114,4,1,19.9780821917808,19,"Adults",2
"235","high_switch",1,"correct",0.5557,115,4,1,19.9780821917808,19,"Adults",2
"236","high_switch",1,"correct",0.4556,116,4,1,19.9780821917808,19,"Adults",2
"237","high_switch",1,"correct",0.6766,117,4,1,19.9780821917808,19,"Adults",2
"238","high_switch",1,"correct",0.4494,118,4,1,19.9780821917808,19,"Adults",2
"239","high_switch",1,"correct",0.6738,119,4,1,19.9780821917808,19,"Adults",2
"240","high_switch",1,"correct",0.468,120,4,1,19.9780821917808,19,"Adults",2
"241","low_switch",0,"correct",1.2491,1,1,1,14.7506849315069,14,"Adolescents",3
"242","low_switch",0,"correct",0.9212,2,1,1,14.7506849315069,14,"Adolescents",3
"243","low_switch",0,"too_slow",NA,3,1,NA,14.7506849315069,14,"Adolescents",3
"244","low_switch",1,"correct",0.7882,4,1,1,14.7506849315069,14,"Adolescents",3
"245","low_switch",1,"correct",1.1085,5,1,1,14.7506849315069,14,"Adolescents",3
"246","low_switch",0,"correct",0.8548,6,1,1,14.7506849315069,14,"Adolescents",3
"247","low_switch",0,"correct",1.0455,7,1,1,14.7506849315069,14,"Adolescents",3
"248","low_switch",1,"correct",0.854,8,1,1,14.7506849315069,14,"Adolescents",3
"249","low_switch",0,"correct",0.8696,9,1,1,14.7506849315069,14,"Adolescents",3
"250","low_switch",0,"correct",0.866,10,1,1,14.7506849315069,14,"Adolescents",3
"251","low_switch",0,"correct",0.7201,11,1,1,14.7506849315069,14,"Adolescents",3
"252","low_switch",0,"correct",0.9732,12,1,1,14.7506849315069,14,"Adolescents",3
"253","low_switch",0,"correct",0.6522,13,1,1,14.7506849315069,14,"Adolescents",3
"254","low_switch",0,"correct",0.6654,14,1,1,14.7506849315069,14,"Adolescents",3
"255","low_switch",0,"correct",0.6802,15,1,1,14.7506849315069,14,"Adolescents",3
"256","low_switch",0,"correct",0.6048,16,1,1,14.7506849315069,14,"Adolescents",3
"257","low_switch",0,"correct",0.5887,17,1,1,14.7506849315069,14,"Adolescents",3
"258","low_switch",0,"correct",0.664,18,1,1,14.7506849315069,14,"Adolescents",3
"259","low_switch",0,"correct",0.7039,19,1,1,14.7506849315069,14,"Adolescents",3
"260","low_switch",0,"correct",0.5616,20,1,1,14.7506849315069,14,"Adolescents",3
"261","low_switch",0,"correct",0.6196,21,1,1,14.7506849315069,14,"Adolescents",3
"262","low_switch",0,"correct",0.637,22,1,1,14.7506849315069,14,"Adolescents",3
"263","low_switch",0,"correct",0.5656,23,1,1,14.7506849315069,14,"Adolescents",3
"264","low_switch",0,"correct",0.7189,24,1,1,14.7506849315069,14,"Adolescents",3
"265","low_switch",0,"correct",0.5472,25,1,1,14.7506849315069,14,"Adolescents",3
"266","low_switch",1,"correct",1.249,26,1,1,14.7506849315069,14,"Adolescents",3
"267","low_switch",0,"correct",0.9383,27,1,1,14.7506849315069,14,"Adolescents",3
"268","low_switch",1,"correct",0.8791,28,1,1,14.7506849315069,14,"Adolescents",3
"269","low_switch",1,"correct",1.1373,29,1,1,14.7506849315069,14,"Adolescents",3
"270","low_switch",0,"correct",0.9943,30,1,1,14.7506849315069,14,"Adolescents",3
"271","high_switch",0,"correct",0.9996,31,2,1,14.7506849315069,14,"Adolescents",3
"272","high_switch",0,"correct",0.9699,32,2,1,14.7506849315069,14,"Adolescents",3
"273","high_switch",0,"correct",0.7894,33,2,1,14.7506849315069,14,"Adolescents",3
"274","high_switch",0,"correct",0.6815,34,2,1,14.7506849315069,14,"Adolescents",3
"275","high_switch",1,"correct",0.768,35,2,1,14.7506849315069,14,"Adolescents",3
"276","high_switch",1,"correct",1.0489,36,2,1,14.7506849315069,14,"Adolescents",3
"277","high_switch",0,"correct",0.7538,37,2,1,14.7506849315069,14,"Adolescents",3
"278","high_switch",0,"correct",0.7766,38,2,1,14.7506849315069,14,"Adolescents",3
"279","high_switch",1,"correct",0.7734,39,2,1,14.7506849315069,14,"Adolescents",3
"280","high_switch",1,"correct",0.9205,40,2,1,14.7506849315069,14,"Adolescents",3
"281","high_switch",1,"correct",0.7235,41,2,1,14.7506849315069,14,"Adolescents",3
"282","high_switch",0,"correct",1.3639,42,2,1,14.7506849315069,14,"Adolescents",3
"283","high_switch",0,"correct",0.5275,43,2,1,14.7506849315069,14,"Adolescents",3
"284","high_switch",0,"correct",0.5896,44,2,1,14.7506849315069,14,"Adolescents",3
"285","high_switch",0,"correct",0.9161,45,2,1,14.7506849315069,14,"Adolescents",3
"286","high_switch",0,"correct",0.518,46,2,1,14.7506849315069,14,"Adolescents",3
"287","high_switch",1,"correct",1.0073,47,2,1,14.7506849315069,14,"Adolescents",3
"288","high_switch",1,"correct",0.8067,48,2,1,14.7506849315069,14,"Adolescents",3
"289","high_switch",1,"correct",0.8864,49,2,1,14.7506849315069,14,"Adolescents",3
"290","high_switch",0,"correct",0.6442,50,2,1,14.7506849315069,14,"Adolescents",3
"291","high_switch",1,"correct",0.5491,51,2,1,14.7506849315069,14,"Adolescents",3
"292","high_switch",1,"correct",0.6404,52,2,1,14.7506849315069,14,"Adolescents",3
"293","high_switch",0,"correct",0.7015,53,2,1,14.7506849315069,14,"Adolescents",3
"294","high_switch",1,"correct",0.5833,54,2,1,14.7506849315069,14,"Adolescents",3
"295","high_switch",1,"correct",0.8338,55,2,1,14.7506849315069,14,"Adolescents",3
"296","high_switch",1,"correct",0.8689,56,2,1,14.7506849315069,14,"Adolescents",3
"297","high_switch",0,"correct",0.5737,57,2,1,14.7506849315069,14,"Adolescents",3
"298","high_switch",1,"correct",0.7454,58,2,1,14.7506849315069,14,"Adolescents",3
"299","high_switch",0,"correct",0.7269,59,2,1,14.7506849315069,14,"Adolescents",3
"300","high_switch",1,"correct",0.9153,60,2,1,14.7506849315069,14,"Adolescents",3
"301","low_switch",0,"correct",0.7356,61,3,1,14.7506849315069,14,"Adolescents",3
"302","low_switch",0,"correct",0.9965,62,3,1,14.7506849315069,14,"Adolescents",3
"303","low_switch",0,"correct",0.9837,63,3,1,14.7506849315069,14,"Adolescents",3
"304","low_switch",0,"correct",1.0855,64,3,1,14.7506849315069,14,"Adolescents",3
"305","low_switch",0,"correct",0.6685,65,3,1,14.7506849315069,14,"Adolescents",3
"306","low_switch",0,"correct",1.1482,66,3,1,14.7506849315069,14,"Adolescents",3
"307","low_switch",0,"correct",0.5942,67,3,1,14.7506849315069,14,"Adolescents",3
"308","low_switch",0,"correct",0.6755,68,3,1,14.7506849315069,14,"Adolescents",3
"309","low_switch",1,"correct",1.0019,69,3,1,14.7506849315069,14,"Adolescents",3
"310","low_switch",0,"correct",0.5942,70,3,1,14.7506849315069,14,"Adolescents",3
"311","low_switch",0,"correct",0.5033,71,3,1,14.7506849315069,14,"Adolescents",3
"312","low_switch",1,"correct",1.3876,72,3,1,14.7506849315069,14,"Adolescents",3
"313","low_switch",0,"correct",0.7013,73,3,1,14.7506849315069,14,"Adolescents",3
"314","low_switch",0,"correct",0.6333,74,3,1,14.7506849315069,14,"Adolescents",3
"315","low_switch",0,"correct",1.2857,75,3,1,14.7506849315069,14,"Adolescents",3
"316","low_switch",0,"correct",0.7177,76,3,1,14.7506849315069,14,"Adolescents",3
"317","low_switch",0,"correct",0.6084,77,3,1,14.7506849315069,14,"Adolescents",3
"318","low_switch",0,"correct",0.6702,78,3,1,14.7506849315069,14,"Adolescents",3
"319","low_switch",0,"correct",0.4897,79,3,1,14.7506849315069,14,"Adolescents",3
"320","low_switch",0,"correct",0.6137,80,3,1,14.7506849315069,14,"Adolescents",3
"321","low_switch",1,"correct",1.0855,81,3,1,14.7506849315069,14,"Adolescents",3
"322","low_switch",0,"correct",0.6249,82,3,1,14.7506849315069,14,"Adolescents",3
"323","low_switch",1,"correct",1.2029,83,3,1,14.7506849315069,14,"Adolescents",3
"324","low_switch",1,"correct",0.5907,84,3,1,14.7506849315069,14,"Adolescents",3
"325","low_switch",0,"too_slow",NA,85,3,NA,14.7506849315069,14,"Adolescents",3
"326","low_switch",0,"correct",0.6987,86,3,1,14.7506849315069,14,"Adolescents",3
"327","low_switch",0,"correct",0.7005,87,3,1,14.7506849315069,14,"Adolescents",3
"328","low_switch",1,"correct",0.8932,88,3,1,14.7506849315069,14,"Adolescents",3
"329","low_switch",0,"correct",0.7287,89,3,1,14.7506849315069,14,"Adolescents",3
"330","low_switch",0,"correct",0.5342,90,3,1,14.7506849315069,14,"Adolescents",3
"331","high_switch",0,"correct",0.7558,91,4,1,14.7506849315069,14,"Adolescents",3
"332","high_switch",0,"correct",0.7662,92,4,1,14.7506849315069,14,"Adolescents",3
"333","high_switch",0,"correct",0.5427,93,4,1,14.7506849315069,14,"Adolescents",3
"334","high_switch",1,"correct",0.6422,94,4,1,14.7506849315069,14,"Adolescents",3
"335","high_switch",0,"correct",0.931,95,4,1,14.7506849315069,14,"Adolescents",3
"336","high_switch",0,"correct",0.5832,96,4,1,14.7506849315069,14,"Adolescents",3
"337","high_switch",1,"correct",0.8164,97,4,1,14.7506849315069,14,"Adolescents",3
"338","high_switch",1,"correct",0.5962,98,4,1,14.7506849315069,14,"Adolescents",3
"339","high_switch",0,"correct",0.4844,99,4,1,14.7506849315069,14,"Adolescents",3
"340","high_switch",1,"correct",0.68,100,4,1,14.7506849315069,14,"Adolescents",3
"341","high_switch",1,"correct",0.6099,101,4,1,14.7506849315069,14,"Adolescents",3
"342","high_switch",0,"correct",0.6097,102,4,1,14.7506849315069,14,"Adolescents",3
"343","high_switch",1,"correct",0.6014,103,4,1,14.7506849315069,14,"Adolescents",3
"344","high_switch",1,"correct",0.6077,104,4,1,14.7506849315069,14,"Adolescents",3
"345","high_switch",0,"correct",0.7009,105,4,1,14.7506849315069,14,"Adolescents",3
"346","high_switch",1,"incorrect",0.597,106,4,0,14.7506849315069,14,"Adolescents",3
"347","high_switch",0,"correct",0.8573,107,4,1,14.7506849315069,14,"Adolescents",3
"348","high_switch",0,"correct",0.6254,108,4,1,14.7506849315069,14,"Adolescents",3
"349","high_switch",1,"correct",0.6559,109,4,1,14.7506849315069,14,"Adolescents",3
"350","high_switch",0,"correct",0.5103,110,4,1,14.7506849315069,14,"Adolescents",3
"351","high_switch",1,"correct",0.515,111,4,1,14.7506849315069,14,"Adolescents",3
"352","high_switch",0,"correct",0.8009,112,4,1,14.7506849315069,14,"Adolescents",3
"353","high_switch",1,"correct",0.6595,113,4,1,14.7506849315069,14,"Adolescents",3
"354","high_switch",0,"correct",0.4696,114,4,1,14.7506849315069,14,"Adolescents",3
"355","high_switch",0,"correct",0.5861,115,4,1,14.7506849315069,14,"Adolescents",3
"356","high_switch",0,"correct",0.585,116,4,1,14.7506849315069,14,"Adolescents",3
"357","high_switch",1,"correct",0.702,117,4,1,14.7506849315069,14,"Adolescents",3
"358","high_switch",1,"correct",0.6178,118,4,1,14.7506849315069,14,"Adolescents",3
"359","high_switch",1,"correct",0.8331,119,4,1,14.7506849315069,14,"Adolescents",3
"360","high_switch",1,"correct",0.7181,120,4,1,14.7506849315069,14,"Adolescents",3
"361","low_switch",0,"correct",0.9661,1,1,1,12.3698630136986,12,"Children",4
"362","low_switch",0,"too_slow",NA,2,1,NA,12.3698630136986,12,"Children",4
"363","low_switch",0,"correct",1.1458,3,1,1,12.3698630136986,12,"Children",4
"364","low_switch",0,"correct",1.1198,4,1,1,12.3698630136986,12,"Children",4
"365","low_switch",0,"correct",1.4586,5,1,1,12.3698630136986,12,"Children",4
"366","low_switch",0,"correct",1.0504,6,1,1,12.3698630136986,12,"Children",4
"367","low_switch",1,"correct",0.9563,7,1,1,12.3698630136986,12,"Children",4
"368","low_switch",0,"correct",0.7081,8,1,1,12.3698630136986,12,"Children",4
"369","low_switch",1,"correct",0.9849,9,1,1,12.3698630136986,12,"Children",4
"370","low_switch",0,"correct",0.7686,10,1,1,12.3698630136986,12,"Children",4
"371","low_switch",0,"correct",1.1654,11,1,1,12.3698630136986,12,"Children",4
"372","low_switch",0,"correct",0.9285,12,1,1,12.3698630136986,12,"Children",4
"373","low_switch",0,"correct",0.7875,13,1,1,12.3698630136986,12,"Children",4
"374","low_switch",1,"correct",1.0008,14,1,1,12.3698630136986,12,"Children",4
"375","low_switch",1,"correct",0.8194,15,1,1,12.3698630136986,12,"Children",4
"376","low_switch",0,"correct",0.8458,16,1,1,12.3698630136986,12,"Children",4
"377","low_switch",0,"correct",0.7936,17,1,1,12.3698630136986,12,"Children",4
"378","low_switch",0,"correct",0.8281,18,1,1,12.3698630136986,12,"Children",4
"379","low_switch",0,"correct",1.0117,19,1,1,12.3698630136986,12,"Children",4
"380","low_switch",0,"correct",1.1945,20,1,1,12.3698630136986,12,"Children",4
"381","low_switch",0,"correct",1.2739,21,1,1,12.3698630136986,12,"Children",4
"382","low_switch",0,"correct",1.2008,22,1,1,12.3698630136986,12,"Children",4
"383","low_switch",0,"correct",1.2603,23,1,1,12.3698630136986,12,"Children",4
"384","low_switch",1,"correct",0.8967,24,1,1,12.3698630136986,12,"Children",4
"385","low_switch",1,"correct",1.2778,25,1,1,12.3698630136986,12,"Children",4
"386","low_switch",0,"correct",1.1248,26,1,1,12.3698630136986,12,"Children",4
"387","low_switch",0,"correct",1.0846,27,1,1,12.3698630136986,12,"Children",4
"388","low_switch",0,"correct",1.1238,28,1,1,12.3698630136986,12,"Children",4
"389","low_switch",0,"correct",1.2688,29,1,1,12.3698630136986,12,"Children",4
"390","low_switch",0,"correct",1.1943,30,1,1,12.3698630136986,12,"Children",4
"391","high_switch",0,"incorrect",0.7512,31,2,0,12.3698630136986,12,"Children",4
"392","high_switch",0,"correct",0.098,32,2,1,12.3698630136986,12,"Children",4
"393","high_switch",0,"correct",0.7345,33,2,1,12.3698630136986,12,"Children",4
"394","high_switch",0,"correct",0.834,34,2,1,12.3698630136986,12,"Children",4
"395","high_switch",1,"correct",1.0771,35,2,1,12.3698630136986,12,"Children",4
"396","high_switch",0,"correct",0.7103,36,2,1,12.3698630136986,12,"Children",4
"397","high_switch",1,"correct",0.989,37,2,1,12.3698630136986,12,"Children",4
"398","high_switch",1,"correct",0.9846,38,2,1,12.3698630136986,12,"Children",4
"399","high_switch",1,"correct",0.8083,39,2,1,12.3698630136986,12,"Children",4
"400","high_switch",0,"correct",1.067,40,2,1,12.3698630136986,12,"Children",4
"401","high_switch",1,"correct",0.4291,41,2,1,12.3698630136986,12,"Children",4
"402","high_switch",0,"incorrect",0.6506,42,2,0,12.3698630136986,12,"Children",4
"403","high_switch",0,"incorrect",0.1241,43,2,0,12.3698630136986,12,"Children",4
"404","high_switch",1,"correct",1.0485,44,2,1,12.3698630136986,12,"Children",4
"405","high_switch",0,"correct",0.9369,45,2,1,12.3698630136986,12,"Children",4
"406","high_switch",1,"correct",0.8501,46,2,1,12.3698630136986,12,"Children",4
"407","high_switch",1,"correct",1.0519,47,2,1,12.3698630136986,12,"Children",4
"408","high_switch",0,"correct",0.759,48,2,1,12.3698630136986,12,"Children",4
"409","high_switch",0,"correct",1.1934,49,2,1,12.3698630136986,12,"Children",4
"410","high_switch",1,"correct",0.7912,50,2,1,12.3698630136986,12,"Children",4
"411","high_switch",0,"correct",0.7124,51,2,1,12.3698630136986,12,"Children",4
"412","high_switch",1,"correct",0.796,52,2,1,12.3698630136986,12,"Children",4
"413","high_switch",0,"correct",1.1357,53,2,1,12.3698630136986,12,"Children",4
"414","high_switch",1,"correct",1.329,54,2,1,12.3698630136986,12,"Children",4
"415","high_switch",0,"correct",0.8762,55,2,1,12.3698630136986,12,"Children",4
"416","high_switch",1,"correct",0.916,56,2,1,12.3698630136986,12,"Children",4
"417","high_switch",1,"correct",0.9907,57,2,1,12.3698630136986,12,"Children",4
"418","high_switch",1,"correct",1.8799,58,2,1,12.3698630136986,12,"Children",4
"419","high_switch",0,"correct",1.4857,59,2,1,12.3698630136986,12,"Children",4
"420","high_switch",1,"correct",1.2403,60,2,1,12.3698630136986,12,"Children",4
"421","low_switch",0,"correct",0.8603,61,3,1,12.3698630136986,12,"Children",4
"422","low_switch",0,"correct",0.8099,62,3,1,12.3698630136986,12,"Children",4
"423","low_switch",0,"correct",0.7225,63,3,1,12.3698630136986,12,"Children",4
"424","low_switch",0,"correct",0.8663,64,3,1,12.3698630136986,12,"Children",4
"425","low_switch",0,"correct",1.8438,65,3,1,12.3698630136986,12,"Children",4
"426","low_switch",1,"correct",0.9278,66,3,1,12.3698630136986,12,"Children",4
"427","low_switch",0,"correct",0.7375,67,3,1,12.3698630136986,12,"Children",4
"428","low_switch",1,"correct",0.687,68,3,1,12.3698630136986,12,"Children",4
"429","low_switch",0,"correct",0.8006,69,3,1,12.3698630136986,12,"Children",4
"430","low_switch",0,"correct",1.0481,70,3,1,12.3698630136986,12,"Children",4
"431","low_switch",1,"correct",0.9743,71,3,1,12.3698630136986,12,"Children",4
"432","low_switch",0,"correct",0.9864,72,3,1,12.3698630136986,12,"Children",4
"433","low_switch",0,"correct",0.7447,73,3,1,12.3698630136986,12,"Children",4
"434","low_switch",0,"correct",0.6163,74,3,1,12.3698630136986,12,"Children",4
"435","low_switch",0,"correct",0.627,75,3,1,12.3698630136986,12,"Children",4
"436","low_switch",0,"correct",0.8918,76,3,1,12.3698630136986,12,"Children",4
"437","low_switch",0,"correct",0.7263,77,3,1,12.3698630136986,12,"Children",4
"438","low_switch",0,"correct",0.6566,78,3,1,12.3698630136986,12,"Children",4
"439","low_switch",0,"correct",0.6207,79,3,1,12.3698630136986,12,"Children",4
"440","low_switch",0,"correct",0.7778,80,3,1,12.3698630136986,12,"Children",4
"441","low_switch",0,"correct",0.4881,81,3,1,12.3698630136986,12,"Children",4
"442","low_switch",1,"correct",0.4046,82,3,1,12.3698630136986,12,"Children",4
"443","low_switch",0,"correct",1.4189,83,3,1,12.3698630136986,12,"Children",4
"444","low_switch",1,"correct",0.3802,84,3,1,12.3698630136986,12,"Children",4
"445","low_switch",0,"correct",0.7075,85,3,1,12.3698630136986,12,"Children",4
"446","low_switch",0,"correct",0.8986,86,3,1,12.3698630136986,12,"Children",4
"447","low_switch",1,"correct",1.1862,87,3,1,12.3698630136986,12,"Children",4
"448","low_switch",0,"correct",1.3074,88,3,1,12.3698630136986,12,"Children",4
"449","low_switch",0,"correct",1.0627,89,3,1,12.3698630136986,12,"Children",4
"450","low_switch",0,"correct",0.7549,90,3,1,12.3698630136986,12,"Children",4
"451","high_switch",0,"correct",0.9423,91,4,1,12.3698630136986,12,"Children",4
"452","high_switch",1,"correct",0.6536,92,4,1,12.3698630136986,12,"Children",4
"453","high_switch",1,"correct",0.9697,93,4,1,12.3698630136986,12,"Children",4
"454","high_switch",0,"correct",1.2405,94,4,1,12.3698630136986,12,"Children",4
"455","high_switch",0,"correct",1.3477,95,4,1,12.3698630136986,12,"Children",4
"456","high_switch",0,"correct",1.0231,96,4,1,12.3698630136986,12,"Children",4
"457","high_switch",0,"correct",1.2291,97,4,1,12.3698630136986,12,"Children",4
"458","high_switch",0,"correct",1.1939,98,4,1,12.3698630136986,12,"Children",4
"459","high_switch",1,"correct",1.8445,99,4,1,12.3698630136986,12,"Children",4
"460","high_switch",1,"correct",1.2745,100,4,1,12.3698630136986,12,"Children",4
"461","high_switch",1,"correct",1.055,101,4,1,12.3698630136986,12,"Children",4
"462","high_switch",0,"correct",0.6201,102,4,1,12.3698630136986,12,"Children",4
"463","high_switch",1,"correct",0.945,103,4,1,12.3698630136986,12,"Children",4
"464","high_switch",1,"correct",0.8916,104,4,1,12.3698630136986,12,"Children",4
"465","high_switch",1,"correct",1.5201,105,4,1,12.3698630136986,12,"Children",4
"466","high_switch",0,"correct",1.0245,106,4,1,12.3698630136986,12,"Children",4
"467","high_switch",0,"correct",0.9192,107,4,1,12.3698630136986,12,"Children",4
"468","high_switch",1,"correct",0.8001,108,4,1,12.3698630136986,12,"Children",4
"469","high_switch",0,"correct",0.7182,109,4,1,12.3698630136986,12,"Children",4
"470","high_switch",0,"correct",0.6415,110,4,1,12.3698630136986,12,"Children",4
"471","high_switch",0,"correct",0.5679,111,4,1,12.3698630136986,12,"Children",4
"472","high_switch",1,"correct",0.7693,112,4,1,12.3698630136986,12,"Children",4
"473","high_switch",1,"correct",0.6956,113,4,1,12.3698630136986,12,"Children",4
"474","high_switch",0,"correct",0.8121,114,4,1,12.3698630136986,12,"Children",4
"475","high_switch",0,"correct",0.7829,115,4,1,12.3698630136986,12,"Children",4
"476","high_switch",1,"correct",0.9976,116,4,1,12.3698630136986,12,"Children",4
"477","high_switch",1,"correct",0.7462,117,4,1,12.3698630136986,12,"Children",4
"478","high_switch",1,"correct",0.9071,118,4,1,12.3698630136986,12,"Children",4
"479","high_switch",0,"correct",1.0171,119,4,1,12.3698630136986,12,"Children",4
"480","high_switch",1,"correct",0.724,120,4,1,12.3698630136986,12,"Children",4
"481","low_switch",0,"too_slow",NA,1,1,NA,17.027397260274,17,"Adolescents",5
"482","low_switch",1,"correct",0.6887,2,1,1,17.027397260274,17,"Adolescents",5
"483","low_switch",0,"correct",0.7581,3,1,1,17.027397260274,17,"Adolescents",5
"484","low_switch",0,"correct",0.6669,4,1,1,17.027397260274,17,"Adolescents",5
"485","low_switch",0,"correct",0.7225,5,1,1,17.027397260274,17,"Adolescents",5
"486","low_switch",0,"correct",0.5861,6,1,1,17.027397260274,17,"Adolescents",5
"487","low_switch",0,"correct",0.6205,7,1,1,17.027397260274,17,"Adolescents",5
"488","low_switch",1,"too_slow",NA,8,1,NA,17.027397260274,17,"Adolescents",5
"489","low_switch",0,"correct",0.7808,9,1,1,17.027397260274,17,"Adolescents",5
"490","low_switch",1,"correct",0.8559,10,1,1,17.027397260274,17,"Adolescents",5
"491","low_switch",0,"correct",0.6169,11,1,1,17.027397260274,17,"Adolescents",5
"492","low_switch",0,"correct",0.7261,12,1,1,17.027397260274,17,"Adolescents",5
"493","low_switch",1,"correct",1.0857,13,1,1,17.027397260274,17,"Adolescents",5
"494","low_switch",0,"correct",0.75,14,1,1,17.027397260274,17,"Adolescents",5
"495","low_switch",0,"correct",0.9513,15,1,1,17.027397260274,17,"Adolescents",5
"496","low_switch",0,"correct",0.944,16,1,1,17.027397260274,17,"Adolescents",5
"497","low_switch",0,"correct",0.7637,17,1,1,17.027397260274,17,"Adolescents",5
"498","low_switch",1,"correct",0.8688,18,1,1,17.027397260274,17,"Adolescents",5
"499","low_switch",0,"correct",0.86,19,1,1,17.027397260274,17,"Adolescents",5
"500","low_switch",0,"correct",0.6141,20,1,1,17.027397260274,17,"Adolescents",5
"501","low_switch",0,"correct",0.5731,21,1,1,17.027397260274,17,"Adolescents",5
"502","low_switch",0,"correct",0.6904,22,1,1,17.027397260274,17,"Adolescents",5
"503","low_switch",0,"correct",0.5802,23,1,1,17.027397260274,17,"Adolescents",5
"504","low_switch",0,"correct",0.7343,24,1,1,17.027397260274,17,"Adolescents",5
"505","low_switch",0,"correct",0.561,25,1,1,17.027397260274,17,"Adolescents",5
"506","low_switch",0,"correct",0.55,26,1,1,17.027397260274,17,"Adolescents",5
"507","low_switch",0,"correct",0.7047,27,1,1,17.027397260274,17,"Adolescents",5
"508","low_switch",0,"correct",0.5992,28,1,1,17.027397260274,17,"Adolescents",5
"509","low_switch",1,"too_slow",NA,29,1,NA,17.027397260274,17,"Adolescents",5
"510","low_switch",0,"correct",0.9398,30,1,1,17.027397260274,17,"Adolescents",5
"511","high_switch",0,"correct",1.0008,31,2,1,17.027397260274,17,"Adolescents",5
"512","high_switch",1,"correct",0.7595,32,2,1,17.027397260274,17,"Adolescents",5
"513","high_switch",0,"correct",0.6052,33,2,1,17.027397260274,17,"Adolescents",5
"514","high_switch",0,"correct",1.0047,34,2,1,17.027397260274,17,"Adolescents",5
"515","high_switch",1,"correct",0.9489,35,2,1,17.027397260274,17,"Adolescents",5
"516","high_switch",0,"correct",0.7697,36,2,1,17.027397260274,17,"Adolescents",5
"517","high_switch",1,"correct",0.9006,37,2,1,17.027397260274,17,"Adolescents",5
"518","high_switch",1,"correct",0.7985,38,2,1,17.027397260274,17,"Adolescents",5
"519","high_switch",0,"correct",0.6965,39,2,1,17.027397260274,17,"Adolescents",5
"520","high_switch",1,"correct",0.6862,40,2,1,17.027397260274,17,"Adolescents",5
"521","high_switch",0,"correct",0.6776,41,2,1,17.027397260274,17,"Adolescents",5
"522","high_switch",0,"correct",0.6005,42,2,1,17.027397260274,17,"Adolescents",5
"523","high_switch",1,"correct",0.7564,43,2,1,17.027397260274,17,"Adolescents",5
"524","high_switch",1,"correct",0.5617,44,2,1,17.027397260274,17,"Adolescents",5
"525","high_switch",1,"correct",0.7593,45,2,1,17.027397260274,17,"Adolescents",5
"526","high_switch",0,"correct",0.7586,46,2,1,17.027397260274,17,"Adolescents",5
"527","high_switch",1,"correct",0.6098,47,2,1,17.027397260274,17,"Adolescents",5
"528","high_switch",1,"correct",0.7608,48,2,1,17.027397260274,17,"Adolescents",5
"529","high_switch",0,"correct",0.6642,49,2,1,17.027397260274,17,"Adolescents",5
"530","high_switch",0,"correct",0.6268,50,2,1,17.027397260274,17,"Adolescents",5
"531","high_switch",0,"correct",0.7012,51,2,1,17.027397260274,17,"Adolescents",5
"532","high_switch",1,"correct",0.9778,52,2,1,17.027397260274,17,"Adolescents",5
"533","high_switch",0,"correct",0.6185,53,2,1,17.027397260274,17,"Adolescents",5
"534","high_switch",1,"correct",0.9824,54,2,1,17.027397260274,17,"Adolescents",5
"535","high_switch",0,"correct",0.7522,55,2,1,17.027397260274,17,"Adolescents",5
"536","high_switch",1,"correct",0.7005,56,2,1,17.027397260274,17,"Adolescents",5
"537","high_switch",1,"correct",0.7434,57,2,1,17.027397260274,17,"Adolescents",5
"538","high_switch",0,"correct",1.055,58,2,1,17.027397260274,17,"Adolescents",5
"539","high_switch",1,"correct",0.7819,59,2,1,17.027397260274,17,"Adolescents",5
"540","high_switch",0,"correct",0.7161,60,2,1,17.027397260274,17,"Adolescents",5
"541","low_switch",0,"correct",0.9645,61,3,1,17.027397260274,17,"Adolescents",5
"542","low_switch",0,"correct",0.7215,62,3,1,17.027397260274,17,"Adolescents",5
"543","low_switch",1,"correct",0.9347,63,3,1,17.027397260274,17,"Adolescents",5
"544","low_switch",1,"correct",0.9229,64,3,1,17.027397260274,17,"Adolescents",5
"545","low_switch",0,"correct",0.6315,65,3,1,17.027397260274,17,"Adolescents",5
"546","low_switch",0,"correct",0.6604,66,3,1,17.027397260274,17,"Adolescents",5
"547","low_switch",0,"correct",0.63,67,3,1,17.027397260274,17,"Adolescents",5
"548","low_switch",1,"correct",0.5655,68,3,1,17.027397260274,17,"Adolescents",5
"549","low_switch",0,"correct",0.7108,69,3,1,17.027397260274,17,"Adolescents",5
"550","low_switch",0,"correct",0.5914,70,3,1,17.027397260274,17,"Adolescents",5
"551","low_switch",1,"correct",0.6203,71,3,1,17.027397260274,17,"Adolescents",5
"552","low_switch",0,"correct",0.5683,72,3,1,17.027397260274,17,"Adolescents",5
"553","low_switch",1,"correct",0.5979,73,3,1,17.027397260274,17,"Adolescents",5
"554","low_switch",0,"correct",0.5769,74,3,1,17.027397260274,17,"Adolescents",5
"555","low_switch",1,"correct",0.7895,75,3,1,17.027397260274,17,"Adolescents",5
"556","low_switch",0,"correct",1.2119,76,3,1,17.027397260274,17,"Adolescents",5
"557","low_switch",0,"correct",0.6605,77,3,1,17.027397260274,17,"Adolescents",5
"558","low_switch",0,"correct",0.59,78,3,1,17.027397260274,17,"Adolescents",5
"559","low_switch",0,"correct",0.549,79,3,1,17.027397260274,17,"Adolescents",5
"560","low_switch",0,"correct",0.7133,80,3,1,17.027397260274,17,"Adolescents",5
"561","low_switch",0,"correct",0.7317,81,3,1,17.027397260274,17,"Adolescents",5
"562","low_switch",0,"correct",0.711,82,3,1,17.027397260274,17,"Adolescents",5
"563","low_switch",0,"correct",0.7108,83,3,1,17.027397260274,17,"Adolescents",5
"564","low_switch",0,"correct",0.6418,84,3,1,17.027397260274,17,"Adolescents",5
"565","low_switch",0,"correct",0.6019,85,3,1,17.027397260274,17,"Adolescents",5
"566","low_switch",0,"correct",0.5934,86,3,1,17.027397260274,17,"Adolescents",5
"567","low_switch",0,"correct",0.5256,87,3,1,17.027397260274,17,"Adolescents",5
"568","low_switch",0,"correct",0.6204,88,3,1,17.027397260274,17,"Adolescents",5
"569","low_switch",0,"correct",0.6337,89,3,1,17.027397260274,17,"Adolescents",5
"570","low_switch",0,"correct",0.6312,90,3,1,17.027397260274,17,"Adolescents",5
"571","high_switch",0,"correct",0.5434,91,4,1,17.027397260274,17,"Adolescents",5
"572","high_switch",0,"correct",0.5372,92,4,1,17.027397260274,17,"Adolescents",5
"573","high_switch",1,"correct",0.6728,93,4,1,17.027397260274,17,"Adolescents",5
"574","high_switch",1,"correct",0.8449,94,4,1,17.027397260274,17,"Adolescents",5
"575","high_switch",1,"correct",0.6995,95,4,1,17.027397260274,17,"Adolescents",5
"576","high_switch",1,"correct",0.7868,96,4,1,17.027397260274,17,"Adolescents",5
"577","high_switch",0,"correct",0.5614,97,4,1,17.027397260274,17,"Adolescents",5
"578","high_switch",0,"correct",0.6621,98,4,1,17.027397260274,17,"Adolescents",5
"579","high_switch",1,"correct",0.5839,99,4,1,17.027397260274,17,"Adolescents",5
"580","high_switch",1,"correct",0.5883,100,4,1,17.027397260274,17,"Adolescents",5
"581","high_switch",0,"correct",0.6233,101,4,1,17.027397260274,17,"Adolescents",5
"582","high_switch",1,"correct",0.5029,102,4,1,17.027397260274,17,"Adolescents",5
"583","high_switch",1,"correct",0.671,103,4,1,17.027397260274,17,"Adolescents",5
"584","high_switch",1,"correct",0.5855,104,4,1,17.027397260274,17,"Adolescents",5
"585","high_switch",0,"correct",0.4347,105,4,1,17.027397260274,17,"Adolescents",5
"586","high_switch",0,"correct",0.4198,106,4,1,17.027397260274,17,"Adolescents",5
"587","high_switch",0,"correct",0.5285,107,4,1,17.027397260274,17,"Adolescents",5
"588","high_switch",0,"correct",0.4843,108,4,1,17.027397260274,17,"Adolescents",5
"589","high_switch",1,"correct",0.7631,109,4,1,17.027397260274,17,"Adolescents",5
"590","high_switch",0,"correct",0.6491,110,4,1,17.027397260274,17,"Adolescents",5
"591","high_switch",1,"correct",0.6429,111,4,1,17.027397260274,17,"Adolescents",5
"592","high_switch",0,"correct",0.5303,112,4,1,17.027397260274,17,"Adolescents",5
"593","high_switch",1,"correct",0.8761,113,4,1,17.027397260274,17,"Adolescents",5
"594","high_switch",0,"correct",0.7035,114,4,1,17.027397260274,17,"Adolescents",5
"595","high_switch",0,"correct",0.686,115,4,1,17.027397260274,17,"Adolescents",5
"596","high_switch",1,"correct",0.5727,116,4,1,17.027397260274,17,"Adolescents",5
"597","high_switch",1,"correct",0.7267,117,4,1,17.027397260274,17,"Adolescents",5
"598","high_switch",0,"correct",0.7528,118,4,1,17.027397260274,17,"Adolescents",5
"599","high_switch",1,"correct",0.6739,119,4,1,17.027397260274,17,"Adolescents",5
"600","high_switch",0,"correct",0.6658,120,4,1,17.027397260274,17,"Adolescents",5
"601","low_switch",0,"too_slow",NA,1,1,NA,16.7315068493151,16,"Adolescents",6
"602","low_switch",1,"correct",0.9246,2,1,1,16.7315068493151,16,"Adolescents",6
"603","low_switch",0,"correct",0.465,3,1,1,16.7315068493151,16,"Adolescents",6
"604","low_switch",0,"correct",0.4249,4,1,1,16.7315068493151,16,"Adolescents",6
"605","low_switch",0,"correct",0.3282,5,1,1,16.7315068493151,16,"Adolescents",6
"606","low_switch",0,"correct",0.3659,6,1,1,16.7315068493151,16,"Adolescents",6
"607","low_switch",0,"correct",0.3923,7,1,1,16.7315068493151,16,"Adolescents",6
"608","low_switch",0,"correct",0.3058,8,1,1,16.7315068493151,16,"Adolescents",6
"609","low_switch",0,"correct",0.3125,9,1,1,16.7315068493151,16,"Adolescents",6
"610","low_switch",0,"correct",0.3872,10,1,1,16.7315068493151,16,"Adolescents",6
"611","low_switch",1,"correct",1.2372,11,1,1,16.7315068493151,16,"Adolescents",6
"612","low_switch",1,"incorrect",0.4435,12,1,0,16.7315068493151,16,"Adolescents",6
"613","low_switch",0,"correct",0.5889,13,1,1,16.7315068493151,16,"Adolescents",6
"614","low_switch",0,"correct",0.7716,14,1,1,16.7315068493151,16,"Adolescents",6
"615","low_switch",0,"correct",0.8595,15,1,1,16.7315068493151,16,"Adolescents",6
"616","low_switch",0,"correct",0.5775,16,1,1,16.7315068493151,16,"Adolescents",6
"617","low_switch",0,"correct",0.5412,17,1,1,16.7315068493151,16,"Adolescents",6
"618","low_switch",0,"correct",0.5169,18,1,1,16.7315068493151,16,"Adolescents",6
"619","low_switch",0,"correct",0.6362,19,1,1,16.7315068493151,16,"Adolescents",6
"620","low_switch",1,"correct",1.2775,20,1,1,16.7315068493151,16,"Adolescents",6
"621","low_switch",0,"correct",0.7376,21,1,1,16.7315068493151,16,"Adolescents",6
"622","low_switch",0,"correct",1.1353,22,1,1,16.7315068493151,16,"Adolescents",6
"623","low_switch",0,"correct",0.9775,23,1,1,16.7315068493151,16,"Adolescents",6
"624","low_switch",0,"correct",1.1032,24,1,1,16.7315068493151,16,"Adolescents",6
"625","low_switch",1,"correct",1.2,25,1,1,16.7315068493151,16,"Adolescents",6
"626","low_switch",0,"correct",1.1268,26,1,1,16.7315068493151,16,"Adolescents",6
"627","low_switch",0,"correct",0.6347,27,1,1,16.7315068493151,16,"Adolescents",6
"628","low_switch",0,"correct",0.5953,28,1,1,16.7315068493151,16,"Adolescents",6
"629","low_switch",0,"correct",0.7867,29,1,1,16.7315068493151,16,"Adolescents",6
"630","low_switch",1,"correct",0.998,30,1,1,16.7315068493151,16,"Adolescents",6
"631","high_switch",0,"correct",0.9189,31,2,1,16.7315068493151,16,"Adolescents",6
"632","high_switch",1,"correct",0.7375,32,2,1,16.7315068493151,16,"Adolescents",6
"633","high_switch",1,"correct",1.0496,33,2,1,16.7315068493151,16,"Adolescents",6
"634","high_switch",0,"correct",1.2912,34,2,1,16.7315068493151,16,"Adolescents",6
"635","high_switch",0,"incorrect",1.2737,35,2,0,16.7315068493151,16,"Adolescents",6
"636","high_switch",0,"correct",0.9451,36,2,1,16.7315068493151,16,"Adolescents",6
"637","high_switch",0,"correct",0.8612,37,2,1,16.7315068493151,16,"Adolescents",6
"638","high_switch",1,"correct",0.7788,38,2,1,16.7315068493151,16,"Adolescents",6
"639","high_switch",0,"correct",0.6531,39,2,1,16.7315068493151,16,"Adolescents",6
"640","high_switch",0,"correct",0.5807,40,2,1,16.7315068493151,16,"Adolescents",6
"641","high_switch",1,"correct",0.8242,41,2,1,16.7315068493151,16,"Adolescents",6
"642","high_switch",1,"correct",0.6095,42,2,1,16.7315068493151,16,"Adolescents",6
"643","high_switch",1,"correct",1.2994,43,2,1,16.7315068493151,16,"Adolescents",6
"644","high_switch",0,"correct",0.9106,44,2,1,16.7315068493151,16,"Adolescents",6
"645","high_switch",1,"correct",0.7094,45,2,1,16.7315068493151,16,"Adolescents",6
"646","high_switch",1,"correct",1.6785,46,2,1,16.7315068493151,16,"Adolescents",6
"647","high_switch",0,"correct",0.8348,47,2,1,16.7315068493151,16,"Adolescents",6
"648","high_switch",1,"correct",1.063,48,2,1,16.7315068493151,16,"Adolescents",6
"649","high_switch",1,"correct",0.9717,49,2,1,16.7315068493151,16,"Adolescents",6
"650","high_switch",1,"correct",0.854,50,2,1,16.7315068493151,16,"Adolescents",6
"651","high_switch",0,"correct",0.8158,51,2,1,16.7315068493151,16,"Adolescents",6
"652","high_switch",0,"correct",0.6533,52,2,1,16.7315068493151,16,"Adolescents",6
"653","high_switch",0,"correct",0.5068,53,2,1,16.7315068493151,16,"Adolescents",6
"654","high_switch",0,"correct",0.6873,54,2,1,16.7315068493151,16,"Adolescents",6
"655","high_switch",1,"correct",1.4541,55,2,1,16.7315068493151,16,"Adolescents",6
"656","high_switch",1,"correct",0.8226,56,2,1,16.7315068493151,16,"Adolescents",6
"657","high_switch",1,"correct",0.7945,57,2,1,16.7315068493151,16,"Adolescents",6
"658","high_switch",0,"correct",0.6223,58,2,1,16.7315068493151,16,"Adolescents",6
"659","high_switch",0,"correct",0.6033,59,2,1,16.7315068493151,16,"Adolescents",6
"660","high_switch",1,"correct",0.8617,60,2,1,16.7315068493151,16,"Adolescents",6
"661","low_switch",0,"correct",1.6486,61,3,1,16.7315068493151,16,"Adolescents",6
"662","low_switch",0,"correct",0.8578,62,3,1,16.7315068493151,16,"Adolescents",6
"663","low_switch",1,"correct",0.538,63,3,1,16.7315068493151,16,"Adolescents",6
"664","low_switch",1,"correct",0.909,64,3,1,16.7315068493151,16,"Adolescents",6
"665","low_switch",0,"correct",1.0749,65,3,1,16.7315068493151,16,"Adolescents",6
"666","low_switch",0,"incorrect",0.3084,66,3,0,16.7315068493151,16,"Adolescents",6
"667","low_switch",0,"correct",1.0721,67,3,1,16.7315068493151,16,"Adolescents",6
"668","low_switch",0,"correct",0.6441,68,3,1,16.7315068493151,16,"Adolescents",6
"669","low_switch",0,"correct",0.7837,69,3,1,16.7315068493151,16,"Adolescents",6
"670","low_switch",0,"correct",0.5284,70,3,1,16.7315068493151,16,"Adolescents",6
"671","low_switch",0,"correct",0.4861,71,3,1,16.7315068493151,16,"Adolescents",6
"672","low_switch",1,"correct",0.5953,72,3,1,16.7315068493151,16,"Adolescents",6
"673","low_switch",0,"correct",0.4392,73,3,1,16.7315068493151,16,"Adolescents",6
"674","low_switch",1,"incorrect",0.6514,74,3,0,16.7315068493151,16,"Adolescents",6
"675","low_switch",0,"correct",0.4121,75,3,1,16.7315068493151,16,"Adolescents",6
"676","low_switch",0,"correct",0.9295,76,3,1,16.7315068493151,16,"Adolescents",6
"677","low_switch",0,"correct",0.6845,77,3,1,16.7315068493151,16,"Adolescents",6
"678","low_switch",0,"correct",0.9589,78,3,1,16.7315068493151,16,"Adolescents",6
"679","low_switch",0,"correct",1.0959,79,3,1,16.7315068493151,16,"Adolescents",6
"680","low_switch",0,"correct",1.2571,80,3,1,16.7315068493151,16,"Adolescents",6
"681","low_switch",1,"correct",1.3657,81,3,1,16.7315068493151,16,"Adolescents",6
"682","low_switch",0,"correct",0.6995,82,3,1,16.7315068493151,16,"Adolescents",6
"683","low_switch",0,"correct",0.5555,83,3,1,16.7315068493151,16,"Adolescents",6
"684","low_switch",0,"correct",0.5195,84,3,1,16.7315068493151,16,"Adolescents",6
"685","low_switch",0,"correct",0.5624,85,3,1,16.7315068493151,16,"Adolescents",6
"686","low_switch",1,"correct",0.4665,86,3,1,16.7315068493151,16,"Adolescents",6
"687","low_switch",0,"correct",0.4804,87,3,1,16.7315068493151,16,"Adolescents",6
"688","low_switch",0,"correct",0.6208,88,3,1,16.7315068493151,16,"Adolescents",6
"689","low_switch",0,"incorrect",0.8218,89,3,0,16.7315068493151,16,"Adolescents",6
"690","low_switch",0,"correct",0.8682,90,3,1,16.7315068493151,16,"Adolescents",6
"691","high_switch",0,"correct",0.6115,91,4,1,16.7315068493151,16,"Adolescents",6
"692","high_switch",0,"correct",0.8737,92,4,1,16.7315068493151,16,"Adolescents",6
"693","high_switch",0,"correct",0.6887,93,4,1,16.7315068493151,16,"Adolescents",6
"694","high_switch",0,"correct",0.9242,94,4,1,16.7315068493151,16,"Adolescents",6
"695","high_switch",0,"correct",0.6988,95,4,1,16.7315068493151,16,"Adolescents",6
"696","high_switch",1,"incorrect",0.9744,96,4,0,16.7315068493151,16,"Adolescents",6
"697","high_switch",1,"correct",1.5675,97,4,1,16.7315068493151,16,"Adolescents",6
"698","high_switch",1,"correct",0.611,98,4,1,16.7315068493151,16,"Adolescents",6
"699","high_switch",1,"correct",0.797,99,4,1,16.7315068493151,16,"Adolescents",6
"700","high_switch",1,"correct",0.6453,100,4,1,16.7315068493151,16,"Adolescents",6
"701","high_switch",1,"correct",1.002,101,4,1,16.7315068493151,16,"Adolescents",6
"702","high_switch",0,"correct",1.0342,102,4,1,16.7315068493151,16,"Adolescents",6
"703","high_switch",1,"correct",0.6375,103,4,1,16.7315068493151,16,"Adolescents",6
"704","high_switch",0,"correct",0.495,104,4,1,16.7315068493151,16,"Adolescents",6
"705","high_switch",0,"correct",0.4939,105,4,1,16.7315068493151,16,"Adolescents",6
"706","high_switch",1,"incorrect",0.9016,106,4,0,16.7315068493151,16,"Adolescents",6
"707","high_switch",0,"correct",1.0395,107,4,1,16.7315068493151,16,"Adolescents",6
"708","high_switch",1,"correct",1.3184,108,4,1,16.7315068493151,16,"Adolescents",6
"709","high_switch",1,"correct",0.6949,109,4,1,16.7315068493151,16,"Adolescents",6
"710","high_switch",0,"correct",1.3387,110,4,1,16.7315068493151,16,"Adolescents",6
"711","high_switch",0,"correct",0.9289,111,4,1,16.7315068493151,16,"Adolescents",6
"712","high_switch",0,"correct",0.6772,112,4,1,16.7315068493151,16,"Adolescents",6
"713","high_switch",0,"correct",0.6908,113,4,1,16.7315068493151,16,"Adolescents",6
"714","high_switch",1,"correct",0.6042,114,4,1,16.7315068493151,16,"Adolescents",6
"715","high_switch",0,"correct",0.5747,115,4,1,16.7315068493151,16,"Adolescents",6
"716","high_switch",1,"correct",0.7416,116,4,1,16.7315068493151,16,"Adolescents",6
"717","high_switch",1,"correct",0.9724,117,4,1,16.7315068493151,16,"Adolescents",6
"718","high_switch",1,"correct",1.3054,118,4,1,16.7315068493151,16,"Adolescents",6
"719","high_switch",1,"correct",0.7074,119,4,1,16.7315068493151,16,"Adolescents",6
"720","high_switch",0,"correct",0.5561,120,4,1,16.7315068493151,16,"Adolescents",6
"721","low_switch",0,"incorrect",1.6344,1,1,0,13.6191780821918,13,"Adolescents",7
"722","low_switch",1,"correct",1.4262,2,1,1,13.6191780821918,13,"Adolescents",7
"723","low_switch",0,"correct",0.9211,3,1,1,13.6191780821918,13,"Adolescents",7
"724","low_switch",0,"correct",0.7587,4,1,1,13.6191780821918,13,"Adolescents",7
"725","low_switch",0,"correct",0.788,5,1,1,13.6191780821918,13,"Adolescents",7
"726","low_switch",0,"correct",0.6729,6,1,1,13.6191780821918,13,"Adolescents",7
"727","low_switch",0,"correct",0.5233,7,1,1,13.6191780821918,13,"Adolescents",7
"728","low_switch",1,"correct",1.4577,8,1,1,13.6191780821918,13,"Adolescents",7
"729","low_switch",0,"too_slow",NA,9,1,NA,13.6191780821918,13,"Adolescents",7
"730","low_switch",0,"correct",0.8554,10,1,1,13.6191780821918,13,"Adolescents",7
"731","low_switch",0,"correct",1.5539,11,1,1,13.6191780821918,13,"Adolescents",7
"732","low_switch",0,"correct",1.1838,12,1,1,13.6191780821918,13,"Adolescents",7
"733","low_switch",1,"correct",0.9599,13,1,1,13.6191780821918,13,"Adolescents",7
"734","low_switch",0,"correct",0.81,14,1,1,13.6191780821918,13,"Adolescents",7
"735","low_switch",0,"correct",0.6943,15,1,1,13.6191780821918,13,"Adolescents",7
"736","low_switch",0,"correct",0.5873,16,1,1,13.6191780821918,13,"Adolescents",7
"737","low_switch",0,"correct",0.5602,17,1,1,13.6191780821918,13,"Adolescents",7
"738","low_switch",0,"correct",0.6272,18,1,1,13.6191780821918,13,"Adolescents",7
"739","low_switch",1,"correct",1.1087,19,1,1,13.6191780821918,13,"Adolescents",7
"740","low_switch",0,"correct",1.0234,20,1,1,13.6191780821918,13,"Adolescents",7
"741","low_switch",0,"correct",0.958,21,1,1,13.6191780821918,13,"Adolescents",7
"742","low_switch",0,"correct",1.0841,22,1,1,13.6191780821918,13,"Adolescents",7
"743","low_switch",0,"correct",0.9756,23,1,1,13.6191780821918,13,"Adolescents",7
"744","low_switch",1,"correct",1.444,24,1,1,13.6191780821918,13,"Adolescents",7
"745","low_switch",0,"correct",0.7239,25,1,1,13.6191780821918,13,"Adolescents",7
"746","low_switch",0,"correct",0.6618,26,1,1,13.6191780821918,13,"Adolescents",7
"747","low_switch",0,"correct",0.8634,27,1,1,13.6191780821918,13,"Adolescents",7
"748","low_switch",0,"correct",0.7264,28,1,1,13.6191780821918,13,"Adolescents",7
"749","low_switch",1,"correct",1.0556,29,1,1,13.6191780821918,13,"Adolescents",7
"750","low_switch",0,"correct",1.2768,30,1,1,13.6191780821918,13,"Adolescents",7
"751","high_switch",0,"correct",1.0679,31,2,1,13.6191780821918,13,"Adolescents",7
"752","high_switch",0,"incorrect",1.1654,32,2,0,13.6191780821918,13,"Adolescents",7
"753","high_switch",0,"correct",1.1235,33,2,1,13.6191780821918,13,"Adolescents",7
"754","high_switch",1,"incorrect",1.259,34,2,0,13.6191780821918,13,"Adolescents",7
"755","high_switch",1,"too_slow",NA,35,2,NA,13.6191780821918,13,"Adolescents",7
"756","high_switch",1,"correct",1.1467,36,2,1,13.6191780821918,13,"Adolescents",7
"757","high_switch",0,"correct",0.7907,37,2,1,13.6191780821918,13,"Adolescents",7
"758","high_switch",0,"correct",0.7518,38,2,1,13.6191780821918,13,"Adolescents",7
"759","high_switch",0,"correct",0.7349,39,2,1,13.6191780821918,13,"Adolescents",7
"760","high_switch",1,"correct",1.0764,40,2,1,13.6191780821918,13,"Adolescents",7
"761","high_switch",0,"correct",1.1151,41,2,1,13.6191780821918,13,"Adolescents",7
"762","high_switch",0,"correct",0.8009,42,2,1,13.6191780821918,13,"Adolescents",7
"763","high_switch",0,"correct",1.2775,43,2,1,13.6191780821918,13,"Adolescents",7
"764","high_switch",1,"correct",0.7205,44,2,1,13.6191780821918,13,"Adolescents",7
"765","high_switch",1,"correct",0.757,45,2,1,13.6191780821918,13,"Adolescents",7
"766","high_switch",1,"correct",0.9291,46,2,1,13.6191780821918,13,"Adolescents",7
"767","high_switch",0,"correct",1.0223,47,2,1,13.6191780821918,13,"Adolescents",7
"768","high_switch",1,"correct",0.7569,48,2,1,13.6191780821918,13,"Adolescents",7
"769","high_switch",1,"correct",0.8921,49,2,1,13.6191780821918,13,"Adolescents",7
"770","high_switch",0,"correct",0.6072,50,2,1,13.6191780821918,13,"Adolescents",7
"771","high_switch",0,"correct",0.5561,51,2,1,13.6191780821918,13,"Adolescents",7
"772","high_switch",1,"correct",1.6614,52,2,1,13.6191780821918,13,"Adolescents",7
"773","high_switch",1,"correct",0.7097,53,2,1,13.6191780821918,13,"Adolescents",7
"774","high_switch",0,"correct",0.5858,54,2,1,13.6191780821918,13,"Adolescents",7
"775","high_switch",1,"correct",0.991,55,2,1,13.6191780821918,13,"Adolescents",7
"776","high_switch",1,"correct",0.9446,56,2,1,13.6191780821918,13,"Adolescents",7
"777","high_switch",1,"correct",0.6798,57,2,1,13.6191780821918,13,"Adolescents",7
"778","high_switch",0,"correct",0.857,58,2,1,13.6191780821918,13,"Adolescents",7
"779","high_switch",1,"correct",0.6743,59,2,1,13.6191780821918,13,"Adolescents",7
"780","high_switch",0,"correct",0.625,60,2,1,13.6191780821918,13,"Adolescents",7
"781","low_switch",0,"correct",1.1579,61,3,1,13.6191780821918,13,"Adolescents",7
"782","low_switch",0,"correct",0.6182,62,3,1,13.6191780821918,13,"Adolescents",7
"783","low_switch",0,"correct",0.5581,63,3,1,13.6191780821918,13,"Adolescents",7
"784","low_switch",0,"correct",0.6381,64,3,1,13.6191780821918,13,"Adolescents",7
"785","low_switch",0,"correct",0.7416,65,3,1,13.6191780821918,13,"Adolescents",7
"786","low_switch",0,"correct",0.4574,66,3,1,13.6191780821918,13,"Adolescents",7
"787","low_switch",0,"correct",0.4743,67,3,1,13.6191780821918,13,"Adolescents",7
"788","low_switch",0,"correct",0.9231,68,3,1,13.6191780821918,13,"Adolescents",7
"789","low_switch",0,"correct",0.7566,69,3,1,13.6191780821918,13,"Adolescents",7
"790","low_switch",1,"correct",1.1767,70,3,1,13.6191780821918,13,"Adolescents",7
"791","low_switch",0,"correct",0.7932,71,3,1,13.6191780821918,13,"Adolescents",7
"792","low_switch",0,"correct",0.8465,72,3,1,13.6191780821918,13,"Adolescents",7
"793","low_switch",1,"correct",0.7434,73,3,1,13.6191780821918,13,"Adolescents",7
"794","low_switch",1,"correct",0.763,74,3,1,13.6191780821918,13,"Adolescents",7
"795","low_switch",1,"correct",0.9918,75,3,1,13.6191780821918,13,"Adolescents",7
"796","low_switch",0,"correct",0.6577,76,3,1,13.6191780821918,13,"Adolescents",7
"797","low_switch",1,"correct",0.8791,77,3,1,13.6191780821918,13,"Adolescents",7
"798","low_switch",0,"correct",0.9084,78,3,1,13.6191780821918,13,"Adolescents",7
"799","low_switch",1,"correct",1.0266,79,3,1,13.6191780821918,13,"Adolescents",7
"800","low_switch",0,"incorrect",0.6552,80,3,0,13.6191780821918,13,"Adolescents",7
"801","low_switch",0,"correct",0.7186,81,3,1,13.6191780821918,13,"Adolescents",7
"802","low_switch",0,"incorrect",0.6072,82,3,0,13.6191780821918,13,"Adolescents",7
"803","low_switch",0,"correct",0.7149,83,3,1,13.6191780821918,13,"Adolescents",7
"804","low_switch",0,"correct",0.7079,84,3,1,13.6191780821918,13,"Adolescents",7
"805","low_switch",0,"correct",0.8485,85,3,1,13.6191780821918,13,"Adolescents",7
"806","low_switch",0,"correct",0.625,86,3,1,13.6191780821918,13,"Adolescents",7
"807","low_switch",0,"correct",0.4587,87,3,1,13.6191780821918,13,"Adolescents",7
"808","low_switch",0,"correct",0.5842,88,3,1,13.6191780821918,13,"Adolescents",7
"809","low_switch",0,"correct",0.6327,89,3,1,13.6191780821918,13,"Adolescents",7
"810","low_switch",0,"correct",0.8071,90,3,1,13.6191780821918,13,"Adolescents",7
"811","high_switch",0,"correct",0.7075,91,4,1,13.6191780821918,13,"Adolescents",7
"812","high_switch",0,"correct",0.6495,92,4,1,13.6191780821918,13,"Adolescents",7
"813","high_switch",0,"correct",0.8,93,4,1,13.6191780821918,13,"Adolescents",7
"814","high_switch",1,"correct",0.81,94,4,1,13.6191780821918,13,"Adolescents",7
"815","high_switch",1,"incorrect",0.8283,95,4,0,13.6191780821918,13,"Adolescents",7
"816","high_switch",1,"correct",0.6304,96,4,1,13.6191780821918,13,"Adolescents",7
"817","high_switch",0,"correct",0.7217,97,4,1,13.6191780821918,13,"Adolescents",7
"818","high_switch",0,"correct",0.5922,98,4,1,13.6191780821918,13,"Adolescents",7
"819","high_switch",0,"correct",1.7916,99,4,1,13.6191780821918,13,"Adolescents",7
"820","high_switch",1,"correct",0.7906,100,4,1,13.6191780821918,13,"Adolescents",7
"821","high_switch",1,"correct",0.6594,101,4,1,13.6191780821918,13,"Adolescents",7
"822","high_switch",0,"correct",0.5769,102,4,1,13.6191780821918,13,"Adolescents",7
"823","high_switch",0,"correct",0.7178,103,4,1,13.6191780821918,13,"Adolescents",7
"824","high_switch",0,"correct",0.5347,104,4,1,13.6191780821918,13,"Adolescents",7
"825","high_switch",0,"correct",0.5166,105,4,1,13.6191780821918,13,"Adolescents",7
"826","high_switch",0,"correct",0.6606,106,4,1,13.6191780821918,13,"Adolescents",7
"827","high_switch",1,"incorrect",0.7305,107,4,0,13.6191780821918,13,"Adolescents",7
"828","high_switch",1,"correct",1.1319,108,4,1,13.6191780821918,13,"Adolescents",7
"829","high_switch",1,"correct",1.3093,109,4,1,13.6191780821918,13,"Adolescents",7
"830","high_switch",0,"correct",0.8908,110,4,1,13.6191780821918,13,"Adolescents",7
"831","high_switch",1,"correct",0.6255,111,4,1,13.6191780821918,13,"Adolescents",7
"832","high_switch",1,"correct",0.7073,112,4,1,13.6191780821918,13,"Adolescents",7
"833","high_switch",1,"correct",0.9079,113,4,1,13.6191780821918,13,"Adolescents",7
"834","high_switch",0,"correct",0.5771,114,4,1,13.6191780821918,13,"Adolescents",7
"835","high_switch",1,"correct",0.6919,115,4,1,13.6191780821918,13,"Adolescents",7
"836","high_switch",0,"correct",0.6731,116,4,1,13.6191780821918,13,"Adolescents",7
"837","high_switch",1,"correct",0.6412,117,4,1,13.6191780821918,13,"Adolescents",7
"838","high_switch",0,"correct",0.7052,118,4,1,13.6191780821918,13,"Adolescents",7
"839","high_switch",1,"incorrect",0.6244,119,4,0,13.6191780821918,13,"Adolescents",7
"840","high_switch",1,"correct",0.7426,120,4,1,13.6191780821918,13,"Adolescents",7
"841","low_switch",0,"correct",1.7746,1,1,1,10.758904109589,10,"Children",8
"842","low_switch",0,"correct",0.9761,2,1,1,10.758904109589,10,"Children",8
"843","low_switch",0,"correct",1.0614,3,1,1,10.758904109589,10,"Children",8
"844","low_switch",1,"correct",2.4024,4,1,1,10.758904109589,10,"Children",8
"845","low_switch",1,"correct",1.8336,5,1,1,10.758904109589,10,"Children",8
"846","low_switch",1,"correct",1.3995,6,1,1,10.758904109589,10,"Children",8
"847","low_switch",0,"correct",1.2518,7,1,1,10.758904109589,10,"Children",8
"848","low_switch",0,"correct",1.1454,8,1,1,10.758904109589,10,"Children",8
"849","low_switch",0,"correct",0.8198,9,1,1,10.758904109589,10,"Children",8
"850","low_switch",0,"correct",1.875,10,1,1,10.758904109589,10,"Children",8
"851","low_switch",0,"correct",1.2498,11,1,1,10.758904109589,10,"Children",8
"852","low_switch",0,"correct",0.9679,12,1,1,10.758904109589,10,"Children",8
"853","low_switch",0,"correct",1.3397,13,1,1,10.758904109589,10,"Children",8
"854","low_switch",0,"correct",0.8257,14,1,1,10.758904109589,10,"Children",8
"855","low_switch",1,"correct",1.4639,15,1,1,10.758904109589,10,"Children",8
"856","low_switch",0,"correct",1.0249,16,1,1,10.758904109589,10,"Children",8
"857","low_switch",0,"correct",0.9439,17,1,1,10.758904109589,10,"Children",8
"858","low_switch",0,"correct",1.3501,18,1,1,10.758904109589,10,"Children",8
"859","low_switch",0,"correct",1.0895,19,1,1,10.758904109589,10,"Children",8
"860","low_switch",0,"correct",0.6935,20,1,1,10.758904109589,10,"Children",8
"861","low_switch",0,"correct",1.6023,21,1,1,10.758904109589,10,"Children",8
"862","low_switch",0,"correct",1.1487,22,1,1,10.758904109589,10,"Children",8
"863","low_switch",0,"correct",1.2688,23,1,1,10.758904109589,10,"Children",8
"864","low_switch",0,"correct",0.9956,24,1,1,10.758904109589,10,"Children",8
"865","low_switch",0,"correct",0.7903,25,1,1,10.758904109589,10,"Children",8
"866","low_switch",1,"correct",1.9762,26,1,1,10.758904109589,10,"Children",8
"867","low_switch",0,"correct",0.8937,27,1,1,10.758904109589,10,"Children",8
"868","low_switch",0,"correct",0.8499,28,1,1,10.758904109589,10,"Children",8
"869","low_switch",0,"correct",0.6833,29,1,1,10.758904109589,10,"Children",8
"870","low_switch",1,"correct",1.9617,30,1,1,10.758904109589,10,"Children",8
"871","high_switch",0,"correct",1.1992,31,2,1,10.758904109589,10,"Children",8
"872","high_switch",0,"correct",1.1682,32,2,1,10.758904109589,10,"Children",8
"873","high_switch",1,"correct",1.2281,33,2,1,10.758904109589,10,"Children",8
"874","high_switch",1,"too_slow",NA,34,2,NA,10.758904109589,10,"Children",8
"875","high_switch",0,"correct",2.3978,35,2,1,10.758904109589,10,"Children",8
"876","high_switch",1,"correct",0.8119,36,2,1,10.758904109589,10,"Children",8
"877","high_switch",1,"correct",1.2218,37,2,1,10.758904109589,10,"Children",8
"878","high_switch",0,"correct",2.0172,38,2,1,10.758904109589,10,"Children",8
"879","high_switch",0,"correct",1.2003,39,2,1,10.758904109589,10,"Children",8
"880","high_switch",1,"correct",1.6722,40,2,1,10.758904109589,10,"Children",8
"881","high_switch",1,"correct",2.1564,41,2,1,10.758904109589,10,"Children",8
"882","high_switch",1,"correct",1.6431,42,2,1,10.758904109589,10,"Children",8
"883","high_switch",0,"correct",1.0449,43,2,1,10.758904109589,10,"Children",8
"884","high_switch",0,"correct",0.755,44,2,1,10.758904109589,10,"Children",8
"885","high_switch",1,"correct",1.0193,45,2,1,10.758904109589,10,"Children",8
"886","high_switch",0,"correct",0.8439,46,2,1,10.758904109589,10,"Children",8
"887","high_switch",1,"correct",0.9002,47,2,1,10.758904109589,10,"Children",8
"888","high_switch",1,"correct",1.326,48,2,1,10.758904109589,10,"Children",8
"889","high_switch",1,"correct",1.6535,49,2,1,10.758904109589,10,"Children",8
"890","high_switch",0,"correct",1.1095,50,2,1,10.758904109589,10,"Children",8
"891","high_switch",0,"correct",0.9165,51,2,1,10.758904109589,10,"Children",8
"892","high_switch",0,"correct",1.1551,52,2,1,10.758904109589,10,"Children",8
"893","high_switch",1,"correct",1.1331,53,2,1,10.758904109589,10,"Children",8
"894","high_switch",1,"correct",1.3384,54,2,1,10.758904109589,10,"Children",8
"895","high_switch",1,"correct",1.035,55,2,1,10.758904109589,10,"Children",8
"896","high_switch",1,"correct",1.8815,56,2,1,10.758904109589,10,"Children",8
"897","high_switch",0,"correct",0.7832,57,2,1,10.758904109589,10,"Children",8
"898","high_switch",0,"correct",0.6026,58,2,1,10.758904109589,10,"Children",8
"899","high_switch",0,"correct",0.9327,59,2,1,10.758904109589,10,"Children",8
"900","high_switch",0,"correct",0.8755,60,2,1,10.758904109589,10,"Children",8
"901","low_switch",0,"correct",1.0788,61,3,1,10.758904109589,10,"Children",8
"902","low_switch",1,"correct",0.8907,62,3,1,10.758904109589,10,"Children",8
"903","low_switch",0,"correct",0.9014,63,3,1,10.758904109589,10,"Children",8
"904","low_switch",0,"correct",1.0337,64,3,1,10.758904109589,10,"Children",8
"905","low_switch",0,"correct",0.5788,65,3,1,10.758904109589,10,"Children",8
"906","low_switch",1,"correct",2.0755,66,3,1,10.758904109589,10,"Children",8
"907","low_switch",0,"correct",0.9016,67,3,1,10.758904109589,10,"Children",8
"908","low_switch",0,"correct",1.9339,68,3,1,10.758904109589,10,"Children",8
"909","low_switch",1,"correct",1.0112,69,3,1,10.758904109589,10,"Children",8
"910","low_switch",0,"too_slow",NA,70,3,NA,10.758904109589,10,"Children",8
"911","low_switch",0,"correct",2.026,71,3,1,10.758904109589,10,"Children",8
"912","low_switch",0,"correct",1.26,72,3,1,10.758904109589,10,"Children",8
"913","low_switch",0,"too_slow",NA,73,3,NA,10.758904109589,10,"Children",8
"914","low_switch",0,"correct",0.5864,74,3,1,10.758904109589,10,"Children",8
"915","low_switch",0,"correct",1.0008,75,3,1,10.758904109589,10,"Children",8
"916","low_switch",0,"correct",0.5262,76,3,1,10.758904109589,10,"Children",8
"917","low_switch",0,"correct",0.4535,77,3,1,10.758904109589,10,"Children",8
"918","low_switch",0,"correct",1.0005,78,3,1,10.758904109589,10,"Children",8
"919","low_switch",0,"correct",0.7354,79,3,1,10.758904109589,10,"Children",8
"920","low_switch",0,"correct",0.7796,80,3,1,10.758904109589,10,"Children",8
"921","low_switch",1,"correct",0.9512,81,3,1,10.758904109589,10,"Children",8
"922","low_switch",0,"correct",1.0056,82,3,1,10.758904109589,10,"Children",8
"923","low_switch",0,"correct",0.2718,83,3,1,10.758904109589,10,"Children",8
"924","low_switch",0,"correct",0.9338,84,3,1,10.758904109589,10,"Children",8
"925","low_switch",1,"correct",0.8338,85,3,1,10.758904109589,10,"Children",8
"926","low_switch",1,"correct",0.8065,86,3,1,10.758904109589,10,"Children",8
"927","low_switch",0,"correct",0.7595,87,3,1,10.758904109589,10,"Children",8
"928","low_switch",0,"correct",0.7106,88,3,1,10.758904109589,10,"Children",8
"929","low_switch",0,"correct",1.8,89,3,1,10.758904109589,10,"Children",8
"930","low_switch",0,"correct",0.9777,90,3,1,10.758904109589,10,"Children",8
"931","high_switch",0,"correct",1.5659,91,4,1,10.758904109589,10,"Children",8
"932","high_switch",1,"correct",1.834,92,4,1,10.758904109589,10,"Children",8
"933","high_switch",1,"correct",1.05,93,4,1,10.758904109589,10,"Children",8
"934","high_switch",0,"correct",0.5955,94,4,1,10.758904109589,10,"Children",8
"935","high_switch",0,"correct",0.9172,95,4,1,10.758904109589,10,"Children",8
"936","high_switch",1,"correct",1.1337,96,4,1,10.758904109589,10,"Children",8
"937","high_switch",0,"correct",0.6109,97,4,1,10.758904109589,10,"Children",8
"938","high_switch",1,"correct",0.9507,98,4,1,10.758904109589,10,"Children",8
"939","high_switch",1,"correct",0.6442,99,4,1,10.758904109589,10,"Children",8
"940","high_switch",1,"correct",0.8029,100,4,1,10.758904109589,10,"Children",8
"941","high_switch",0,"correct",0.9092,101,4,1,10.758904109589,10,"Children",8
"942","high_switch",0,"correct",0.7458,102,4,1,10.758904109589,10,"Children",8
"943","high_switch",0,"correct",1.001,103,4,1,10.758904109589,10,"Children",8
"944","high_switch",0,"incorrect",1.0537,104,4,0,10.758904109589,10,"Children",8
"945","high_switch",1,"correct",1.0029,105,4,1,10.758904109589,10,"Children",8
"946","high_switch",0,"correct",0.7452,106,4,1,10.758904109589,10,"Children",8
"947","high_switch",0,"correct",0.7859,107,4,1,10.758904109589,10,"Children",8
"948","high_switch",1,"correct",1.4005,108,4,1,10.758904109589,10,"Children",8
"949","high_switch",0,"correct",1.3006,109,4,1,10.758904109589,10,"Children",8
"950","high_switch",0,"correct",1.1161,110,4,1,10.758904109589,10,"Children",8
"951","high_switch",1,"correct",0.7519,111,4,1,10.758904109589,10,"Children",8
"952","high_switch",1,"correct",2.4041,112,4,1,10.758904109589,10,"Children",8
"953","high_switch",1,"too_slow",NA,113,4,NA,10.758904109589,10,"Children",8
"954","high_switch",0,"correct",1.1724,114,4,1,10.758904109589,10,"Children",8
"955","high_switch",0,"correct",1.0998,115,4,1,10.758904109589,10,"Children",8
"956","high_switch",1,"too_slow",NA,116,4,NA,10.758904109589,10,"Children",8
"957","high_switch",0,"correct",0.8214,117,4,1,10.758904109589,10,"Children",8
"958","high_switch",1,"correct",0.7343,118,4,1,10.758904109589,10,"Children",8
"959","high_switch",1,"correct",0.9825,119,4,1,10.758904109589,10,"Children",8
"960","high_switch",1,"correct",0.8387,120,4,1,10.758904109589,10,"Children",8
"961","low_switch",0,"correct",1.1633,1,1,1,18.2328767123288,18,"Adults",9
"962","low_switch",0,"correct",0.819,2,1,1,18.2328767123288,18,"Adults",9
"963","low_switch",0,"correct",1.1515,3,1,1,18.2328767123288,18,"Adults",9
"964","low_switch",1,"too_slow",NA,4,1,NA,18.2328767123288,18,"Adults",9
"965","low_switch",0,"correct",1.3006,5,1,1,18.2328767123288,18,"Adults",9
"966","low_switch",1,"correct",1.1884,6,1,1,18.2328767123288,18,"Adults",9
"967","low_switch",0,"too_slow",NA,7,1,NA,18.2328767123288,18,"Adults",9
"968","low_switch",1,"correct",0.9123,8,1,1,18.2328767123288,18,"Adults",9
"969","low_switch",0,"correct",1.1139,9,1,1,18.2328767123288,18,"Adults",9
"970","low_switch",0,"correct",0.8218,10,1,1,18.2328767123288,18,"Adults",9
"971","low_switch",0,"correct",1.1009,11,1,1,18.2328767123288,18,"Adults",9
"972","low_switch",1,"correct",1.3056,12,1,1,18.2328767123288,18,"Adults",9
"973","low_switch",0,"correct",0.996,13,1,1,18.2328767123288,18,"Adults",9
"974","low_switch",0,"correct",0.6794,14,1,1,18.2328767123288,18,"Adults",9
"975","low_switch",0,"correct",0.8069,15,1,1,18.2328767123288,18,"Adults",9
"976","low_switch",1,"correct",0.7451,16,1,1,18.2328767123288,18,"Adults",9
"977","low_switch",0,"correct",0.7726,17,1,1,18.2328767123288,18,"Adults",9
"978","low_switch",0,"correct",0.6341,18,1,1,18.2328767123288,18,"Adults",9
"979","low_switch",0,"correct",0.6182,19,1,1,18.2328767123288,18,"Adults",9
"980","low_switch",0,"correct",0.6146,20,1,1,18.2328767123288,18,"Adults",9
"981","low_switch",0,"correct",0.5972,21,1,1,18.2328767123288,18,"Adults",9
"982","low_switch",0,"correct",0.6004,22,1,1,18.2328767123288,18,"Adults",9
"983","low_switch",0,"correct",0.774,23,1,1,18.2328767123288,18,"Adults",9
"984","low_switch",0,"correct",0.6682,24,1,1,18.2328767123288,18,"Adults",9
"985","low_switch",0,"correct",0.6006,25,1,1,18.2328767123288,18,"Adults",9
"986","low_switch",1,"correct",0.9866,26,1,1,18.2328767123288,18,"Adults",9
"987","low_switch",0,"incorrect",0.7587,27,1,0,18.2328767123288,18,"Adults",9
"988","low_switch",0,"correct",1.4751,28,1,1,18.2328767123288,18,"Adults",9
"989","low_switch",0,"correct",0.6316,29,1,1,18.2328767123288,18,"Adults",9
"990","low_switch",0,"correct",0.6068,30,1,1,18.2328767123288,18,"Adults",9
"991","high_switch",0,"incorrect",0.789,31,2,0,18.2328767123288,18,"Adults",9
"992","high_switch",0,"correct",1.2543,32,2,1,18.2328767123288,18,"Adults",9
"993","high_switch",0,"correct",0.5765,33,2,1,18.2328767123288,18,"Adults",9
"994","high_switch",1,"correct",0.6393,34,2,1,18.2328767123288,18,"Adults",9
"995","high_switch",1,"correct",1.2527,35,2,1,18.2328767123288,18,"Adults",9
"996","high_switch",1,"correct",0.6337,36,2,1,18.2328767123288,18,"Adults",9
"997","high_switch",0,"correct",0.6072,37,2,1,18.2328767123288,18,"Adults",9
"998","high_switch",1,"correct",0.9295,38,2,1,18.2328767123288,18,"Adults",9
"999","high_switch",1,"correct",0.9541,39,2,1,18.2328767123288,18,"Adults",9
"1000","high_switch",0,"correct",0.595,40,2,1,18.2328767123288,18,"Adults",9
"1001","high_switch",0,"correct",0.7758,41,2,1,18.2328767123288,18,"Adults",9
"1002","high_switch",1,"correct",1.4368,42,2,1,18.2328767123288,18,"Adults",9
"1003","high_switch",0,"correct",1.1032,43,2,1,18.2328767123288,18,"Adults",9
"1004","high_switch",0,"correct",0.9369,44,2,1,18.2328767123288,18,"Adults",9
"1005","high_switch",1,"correct",0.9174,45,2,1,18.2328767123288,18,"Adults",9
"1006","high_switch",1,"incorrect",0.7651,46,2,0,18.2328767123288,18,"Adults",9
"1007","high_switch",0,"correct",1.1302,47,2,1,18.2328767123288,18,"Adults",9
"1008","high_switch",1,"correct",0.8109,48,2,1,18.2328767123288,18,"Adults",9
"1009","high_switch",0,"correct",0.7806,49,2,1,18.2328767123288,18,"Adults",9
"1010","high_switch",1,"correct",0.9255,50,2,1,18.2328767123288,18,"Adults",9
"1011","high_switch",1,"correct",0.7829,51,2,1,18.2328767123288,18,"Adults",9
"1012","high_switch",0,"correct",0.6113,52,2,1,18.2328767123288,18,"Adults",9
"1013","high_switch",0,"correct",0.7945,53,2,1,18.2328767123288,18,"Adults",9
"1014","high_switch",1,"correct",1.1085,54,2,1,18.2328767123288,18,"Adults",9
"1015","high_switch",0,"correct",1.0994,55,2,1,18.2328767123288,18,"Adults",9
"1016","high_switch",1,"correct",0.9546,56,2,1,18.2328767123288,18,"Adults",9
"1017","high_switch",1,"correct",0.8954,57,2,1,18.2328767123288,18,"Adults",9
"1018","high_switch",0,"correct",0.599,58,2,1,18.2328767123288,18,"Adults",9
"1019","high_switch",0,"correct",0.7367,59,2,1,18.2328767123288,18,"Adults",9
"1020","high_switch",1,"correct",0.7763,60,2,1,18.2328767123288,18,"Adults",9
"1021","low_switch",0,"correct",1.5309,61,3,1,18.2328767123288,18,"Adults",9
"1022","low_switch",0,"too_slow",NA,62,3,NA,18.2328767123288,18,"Adults",9
"1023","low_switch",1,"correct",1.1203,63,3,1,18.2328767123288,18,"Adults",9
"1024","low_switch",0,"correct",0.852,64,3,1,18.2328767123288,18,"Adults",9
"1025","low_switch",0,"correct",1.1535,65,3,1,18.2328767123288,18,"Adults",9
"1026","low_switch",0,"correct",1.1585,66,3,1,18.2328767123288,18,"Adults",9
"1027","low_switch",1,"correct",1.5911,67,3,1,18.2328767123288,18,"Adults",9
"1028","low_switch",1,"correct",0.8023,68,3,1,18.2328767123288,18,"Adults",9
"1029","low_switch",0,"correct",0.6235,69,3,1,18.2328767123288,18,"Adults",9
"1030","low_switch",0,"correct",0.675,70,3,1,18.2328767123288,18,"Adults",9
"1031","low_switch",0,"correct",0.7821,71,3,1,18.2328767123288,18,"Adults",9
"1032","low_switch",0,"correct",0.6207,72,3,1,18.2328767123288,18,"Adults",9
"1033","low_switch",0,"correct",0.8124,73,3,1,18.2328767123288,18,"Adults",9
"1034","low_switch",0,"correct",0.6599,74,3,1,18.2328767123288,18,"Adults",9
"1035","low_switch",0,"correct",0.6186,75,3,1,18.2328767123288,18,"Adults",9
"1036","low_switch",1,"correct",0.8203,76,3,1,18.2328767123288,18,"Adults",9
"1037","low_switch",1,"correct",0.7491,77,3,1,18.2328767123288,18,"Adults",9
"1038","low_switch",0,"correct",0.5862,78,3,1,18.2328767123288,18,"Adults",9
"1039","low_switch",0,"correct",0.6408,79,3,1,18.2328767123288,18,"Adults",9
"1040","low_switch",0,"correct",0.731,80,3,1,18.2328767123288,18,"Adults",9
"1041","low_switch",0,"correct",0.5847,81,3,1,18.2328767123288,18,"Adults",9
"1042","low_switch",0,"correct",0.6289,82,3,1,18.2328767123288,18,"Adults",9
"1043","low_switch",1,"correct",1.1412,83,3,1,18.2328767123288,18,"Adults",9
"1044","low_switch",0,"correct",0.7794,84,3,1,18.2328767123288,18,"Adults",9
"1045","low_switch",0,"correct",0.7698,85,3,1,18.2328767123288,18,"Adults",9
"1046","low_switch",0,"correct",0.912,86,3,1,18.2328767123288,18,"Adults",9
"1047","low_switch",0,"correct",0.6331,87,3,1,18.2328767123288,18,"Adults",9
"1048","low_switch",0,"correct",0.5603,88,3,1,18.2328767123288,18,"Adults",9
"1049","low_switch",0,"correct",0.6091,89,3,1,18.2328767123288,18,"Adults",9
"1050","low_switch",0,"correct",0.7453,90,3,1,18.2328767123288,18,"Adults",9
"1051","high_switch",0,"correct",0.8711,91,4,1,18.2328767123288,18,"Adults",9
"1052","high_switch",0,"correct",0.6451,92,4,1,18.2328767123288,18,"Adults",9
"1053","high_switch",1,"correct",0.7429,93,4,1,18.2328767123288,18,"Adults",9
"1054","high_switch",1,"correct",0.6107,94,4,1,18.2328767123288,18,"Adults",9
"1055","high_switch",1,"correct",0.7792,95,4,1,18.2328767123288,18,"Adults",9
"1056","high_switch",1,"correct",0.746,96,4,1,18.2328767123288,18,"Adults",9
"1057","high_switch",0,"correct",0.598,97,4,1,18.2328767123288,18,"Adults",9
"1058","high_switch",0,"correct",0.6366,98,4,1,18.2328767123288,18,"Adults",9
"1059","high_switch",0,"correct",0.6356,99,4,1,18.2328767123288,18,"Adults",9
"1060","high_switch",0,"correct",0.6268,100,4,1,18.2328767123288,18,"Adults",9
"1061","high_switch",0,"correct",0.7364,101,4,1,18.2328767123288,18,"Adults",9
"1062","high_switch",1,"incorrect",0.7842,102,4,0,18.2328767123288,18,"Adults",9
"1063","high_switch",0,"correct",0.6733,103,4,1,18.2328767123288,18,"Adults",9
"1064","high_switch",1,"correct",1.0763,104,4,1,18.2328767123288,18,"Adults",9
"1065","high_switch",1,"correct",0.6507,105,4,1,18.2328767123288,18,"Adults",9
"1066","high_switch",0,"correct",0.6589,106,4,1,18.2328767123288,18,"Adults",9
"1067","high_switch",0,"correct",0.6195,107,4,1,18.2328767123288,18,"Adults",9
"1068","high_switch",1,"correct",0.9199,108,4,1,18.2328767123288,18,"Adults",9
"1069","high_switch",0,"correct",0.7476,109,4,1,18.2328767123288,18,"Adults",9
"1070","high_switch",0,"correct",0.6159,110,4,1,18.2328767123288,18,"Adults",9
"1071","high_switch",1,"correct",0.6583,111,4,1,18.2328767123288,18,"Adults",9
"1072","high_switch",1,"correct",0.782,112,4,1,18.2328767123288,18,"Adults",9
"1073","high_switch",0,"correct",0.792,113,4,1,18.2328767123288,18,"Adults",9
"1074","high_switch",1,"correct",0.8027,114,4,1,18.2328767123288,18,"Adults",9
"1075","high_switch",0,"correct",0.6267,115,4,1,18.2328767123288,18,"Adults",9
"1076","high_switch",1,"correct",0.8326,116,4,1,18.2328767123288,18,"Adults",9
"1077","high_switch",1,"correct",0.8282,117,4,1,18.2328767123288,18,"Adults",9
"1078","high_switch",0,"correct",0.6211,118,4,1,18.2328767123288,18,"Adults",9
"1079","high_switch",1,"incorrect",0.6551,119,4,0,18.2328767123288,18,"Adults",9
"1080","high_switch",1,"correct",1.139,120,4,1,18.2328767123288,18,"Adults",9
"1081","low_switch",0,"too_slow",NA,1,1,NA,19.4684931506849,19,"Adults",10
"1082","low_switch",0,"correct",1.3291,2,1,1,19.4684931506849,19,"Adults",10
"1083","low_switch",0,"correct",0.9652,3,1,1,19.4684931506849,19,"Adults",10
"1084","low_switch",1,"correct",0.9434,4,1,1,19.4684931506849,19,"Adults",10
"1085","low_switch",0,"correct",1.6761,5,1,1,19.4684931506849,19,"Adults",10
"1086","low_switch",1,"correct",1.9144,6,1,1,19.4684931506849,19,"Adults",10
"1087","low_switch",0,"correct",1.0918,7,1,1,19.4684931506849,19,"Adults",10
"1088","low_switch",1,"incorrect",1.4078,8,1,0,19.4684931506849,19,"Adults",10
"1089","low_switch",0,"correct",0.9363,9,1,1,19.4684931506849,19,"Adults",10
"1090","low_switch",0,"correct",1.3281,10,1,1,19.4684931506849,19,"Adults",10
"1091","low_switch",0,"correct",0.6928,11,1,1,19.4684931506849,19,"Adults",10
"1092","low_switch",1,"correct",1.3572,12,1,1,19.4684931506849,19,"Adults",10
"1093","low_switch",0,"correct",0.9506,13,1,1,19.4684931506849,19,"Adults",10
"1094","low_switch",0,"correct",1.4076,14,1,1,19.4684931506849,19,"Adults",10
"1095","low_switch",0,"correct",0.9022,15,1,1,19.4684931506849,19,"Adults",10
"1096","low_switch",0,"correct",0.846,16,1,1,19.4684931506849,19,"Adults",10
"1097","low_switch",0,"correct",0.7977,17,1,1,19.4684931506849,19,"Adults",10
"1098","low_switch",0,"correct",0.8123,18,1,1,19.4684931506849,19,"Adults",10
"1099","low_switch",0,"correct",0.9586,19,1,1,19.4684931506849,19,"Adults",10
"1100","low_switch",0,"correct",0.8348,20,1,1,19.4684931506849,19,"Adults",10
"1101","low_switch",0,"correct",0.7006,21,1,1,19.4684931506849,19,"Adults",10
"1102","low_switch",0,"correct",0.9197,22,1,1,19.4684931506849,19,"Adults",10
"1103","low_switch",0,"correct",1.4687,23,1,1,19.4684931506849,19,"Adults",10
"1104","low_switch",0,"correct",1.0943,24,1,1,19.4684931506849,19,"Adults",10
"1105","low_switch",0,"correct",0.7936,25,1,1,19.4684931506849,19,"Adults",10
"1106","low_switch",1,"incorrect",0.7114,26,1,0,19.4684931506849,19,"Adults",10
"1107","low_switch",0,"correct",1.2728,27,1,1,19.4684931506849,19,"Adults",10
"1108","low_switch",0,"correct",0.6164,28,1,1,19.4684931506849,19,"Adults",10
"1109","low_switch",1,"correct",1.2833,29,1,1,19.4684931506849,19,"Adults",10
"1110","low_switch",0,"correct",0.9322,30,1,1,19.4684931506849,19,"Adults",10
"1111","high_switch",0,"correct",0.6606,31,2,1,19.4684931506849,19,"Adults",10
"1112","high_switch",1,"correct",0.6146,32,2,1,19.4684931506849,19,"Adults",10
"1113","high_switch",0,"correct",0.5313,33,2,1,19.4684931506849,19,"Adults",10
"1114","high_switch",1,"correct",0.9942,34,2,1,19.4684931506849,19,"Adults",10
"1115","high_switch",1,"correct",0.9136,35,2,1,19.4684931506849,19,"Adults",10
"1116","high_switch",1,"correct",0.813,36,2,1,19.4684931506849,19,"Adults",10
"1117","high_switch",1,"correct",0.776,37,2,1,19.4684931506849,19,"Adults",10
"1118","high_switch",0,"correct",0.7085,38,2,1,19.4684931506849,19,"Adults",10
"1119","high_switch",0,"correct",0.9882,39,2,1,19.4684931506849,19,"Adults",10
"1120","high_switch",1,"correct",1.147,40,2,1,19.4684931506849,19,"Adults",10
"1121","high_switch",0,"correct",0.7474,41,2,1,19.4684931506849,19,"Adults",10
"1122","high_switch",0,"correct",0.6469,42,2,1,19.4684931506849,19,"Adults",10
"1123","high_switch",1,"correct",1.0367,43,2,1,19.4684931506849,19,"Adults",10
"1124","high_switch",0,"correct",1.0594,44,2,1,19.4684931506849,19,"Adults",10
"1125","high_switch",0,"correct",0.7772,45,2,1,19.4684931506849,19,"Adults",10
"1126","high_switch",0,"correct",0.6845,46,2,1,19.4684931506849,19,"Adults",10
"1127","high_switch",1,"correct",0.7596,47,2,1,19.4684931506849,19,"Adults",10
"1128","high_switch",0,"correct",1.0058,48,2,1,19.4684931506849,19,"Adults",10
"1129","high_switch",1,"correct",0.8299,49,2,1,19.4684931506849,19,"Adults",10
"1130","high_switch",0,"correct",0.8426,50,2,1,19.4684931506849,19,"Adults",10
"1131","high_switch",1,"correct",1.6492,51,2,1,19.4684931506849,19,"Adults",10
"1132","high_switch",1,"correct",0.8845,52,2,1,19.4684931506849,19,"Adults",10
"1133","high_switch",0,"correct",0.6589,53,2,1,19.4684931506849,19,"Adults",10
"1134","high_switch",0,"correct",1.1263,54,2,1,19.4684931506849,19,"Adults",10
"1135","high_switch",1,"correct",1.0356,55,2,1,19.4684931506849,19,"Adults",10
"1136","high_switch",0,"correct",1.1886,56,2,1,19.4684931506849,19,"Adults",10
"1137","high_switch",1,"correct",0.8604,57,2,1,19.4684931506849,19,"Adults",10
"1138","high_switch",0,"correct",1.1608,58,2,1,19.4684931506849,19,"Adults",10
"1139","high_switch",1,"correct",1.3452,59,2,1,19.4684931506849,19,"Adults",10
"1140","high_switch",1,"correct",0.8332,60,2,1,19.4684931506849,19,"Adults",10
"1141","low_switch",0,"too_slow",NA,61,3,NA,19.4684931506849,19,"Adults",10
"1142","low_switch",1,"correct",0.8956,62,3,1,19.4684931506849,19,"Adults",10
"1143","low_switch",0,"correct",0.6191,63,3,1,19.4684931506849,19,"Adults",10
"1144","low_switch",0,"correct",0.5825,64,3,1,19.4684931506849,19,"Adults",10
"1145","low_switch",0,"correct",0.8768,65,3,1,19.4684931506849,19,"Adults",10
"1146","low_switch",0,"correct",0.5665,66,3,1,19.4684931506849,19,"Adults",10
"1147","low_switch",0,"correct",0.676,67,3,1,19.4684931506849,19,"Adults",10
"1148","low_switch",0,"correct",0.75,68,3,1,19.4684931506849,19,"Adults",10
"1149","low_switch",0,"correct",0.6408,69,3,1,19.4684931506849,19,"Adults",10
"1150","low_switch",0,"correct",0.5372,70,3,1,19.4684931506849,19,"Adults",10
"1151","low_switch",0,"correct",0.4883,71,3,1,19.4684931506849,19,"Adults",10
"1152","low_switch",0,"correct",0.7277,72,3,1,19.4684931506849,19,"Adults",10
"1153","low_switch",1,"correct",1.4099,73,3,1,19.4684931506849,19,"Adults",10
"1154","low_switch",1,"correct",0.8987,74,3,1,19.4684931506849,19,"Adults",10
"1155","low_switch",0,"correct",0.6195,75,3,1,19.4684931506849,19,"Adults",10
"1156","low_switch",1,"correct",0.8812,76,3,1,19.4684931506849,19,"Adults",10
"1157","low_switch",0,"correct",0.7089,77,3,1,19.4684931506849,19,"Adults",10
"1158","low_switch",0,"correct",0.5379,78,3,1,19.4684931506849,19,"Adults",10
"1159","low_switch",0,"correct",0.8861,79,3,1,19.4684931506849,19,"Adults",10
"1160","low_switch",0,"correct",0.7066,80,3,1,19.4684931506849,19,"Adults",10
"1161","low_switch",0,"correct",0.71,81,3,1,19.4684931506849,19,"Adults",10
"1162","low_switch",1,"correct",0.6439,82,3,1,19.4684931506849,19,"Adults",10
"1163","low_switch",0,"correct",0.5619,83,3,1,19.4684931506849,19,"Adults",10
"1164","low_switch",0,"correct",0.717,84,3,1,19.4684931506849,19,"Adults",10
"1165","low_switch",0,"correct",1.1163,85,3,1,19.4684931506849,19,"Adults",10
"1166","low_switch",0,"correct",0.6138,86,3,1,19.4684931506849,19,"Adults",10
"1167","low_switch",0,"correct",0.6476,87,3,1,19.4684931506849,19,"Adults",10
"1168","low_switch",0,"correct",1.4941,88,3,1,19.4684931506849,19,"Adults",10
"1169","low_switch",0,"correct",0.7607,89,3,1,19.4684931506849,19,"Adults",10
"1170","low_switch",1,"correct",1.1988,90,3,1,19.4684931506849,19,"Adults",10
"1171","high_switch",0,"correct",0.7824,91,4,1,19.4684931506849,19,"Adults",10
"1172","high_switch",1,"correct",0.7102,92,4,1,19.4684931506849,19,"Adults",10
"1173","high_switch",0,"correct",0.7549,93,4,1,19.4684931506849,19,"Adults",10
"1174","high_switch",1,"incorrect",0.9089,94,4,0,19.4684931506849,19,"Adults",10
"1175","high_switch",0,"correct",1.2836,95,4,1,19.4684931506849,19,"Adults",10
"1176","high_switch",0,"correct",1.0511,96,4,1,19.4684931506849,19,"Adults",10
"1177","high_switch",0,"correct",1.1343,97,4,1,19.4684931506849,19,"Adults",10
"1178","high_switch",0,"correct",0.8992,98,4,1,19.4684931506849,19,"Adults",10
"1179","high_switch",0,"incorrect",0.7723,99,4,0,19.4684931506849,19,"Adults",10
"1180","high_switch",1,"correct",1.0328,100,4,1,19.4684931506849,19,"Adults",10
"1181","high_switch",0,"correct",0.6865,101,4,1,19.4684931506849,19,"Adults",10
"1182","high_switch",1,"correct",0.9038,102,4,1,19.4684931506849,19,"Adults",10
"1183","high_switch",1,"correct",0.8302,103,4,1,19.4684931506849,19,"Adults",10
"1184","high_switch",1,"correct",1.1769,104,4,1,19.4684931506849,19,"Adults",10
"1185","high_switch",0,"incorrect",1.2806,105,4,0,19.4684931506849,19,"Adults",10
"1186","high_switch",1,"correct",1.1415,106,4,1,19.4684931506849,19,"Adults",10
"1187","high_switch",1,"correct",1.377,107,4,1,19.4684931506849,19,"Adults",10
"1188","high_switch",0,"correct",0.903,108,4,1,19.4684931506849,19,"Adults",10
"1189","high_switch",0,"correct",0.8584,109,4,1,19.4684931506849,19,"Adults",10
"1190","high_switch",0,"correct",0.8788,110,4,1,19.4684931506849,19,"Adults",10
"1191","high_switch",0,"correct",0.7405,111,4,1,19.4684931506849,19,"Adults",10
"1192","high_switch",1,"correct",1.1588,112,4,1,19.4684931506849,19,"Adults",10
"1193","high_switch",1,"correct",1.0605,113,4,1,19.4684931506849,19,"Adults",10
"1194","high_switch",0,"correct",1.3456,114,4,1,19.4684931506849,19,"Adults",10
"1195","high_switch",1,"correct",1.5145,115,4,1,19.4684931506849,19,"Adults",10
"1196","high_switch",0,"correct",1.0801,116,4,1,19.4684931506849,19,"Adults",10
"1197","high_switch",1,"correct",1.5299,117,4,1,19.4684931506849,19,"Adults",10
"1198","high_switch",1,"correct",1.7293,118,4,1,19.4684931506849,19,"Adults",10
"1199","high_switch",1,"correct",1.1938,119,4,1,19.4684931506849,19,"Adults",10
"1200","high_switch",1,"correct",1.2451,120,4,1,19.4684931506849,19,"Adults",10
"1201","low_switch",0,"correct",1.3657,1,1,1,15.9342465753425,15,"Adolescents",11
"1202","low_switch",0,"correct",2.0211,2,1,1,15.9342465753425,15,"Adolescents",11
"1203","low_switch",1,"correct",1.2357,3,1,1,15.9342465753425,15,"Adolescents",11
"1204","low_switch",0,"correct",1.3745,4,1,1,15.9342465753425,15,"Adolescents",11
"1205","low_switch",0,"correct",1.3363,5,1,1,15.9342465753425,15,"Adolescents",11
"1206","low_switch",0,"correct",1.2068,6,1,1,15.9342465753425,15,"Adolescents",11
"1207","low_switch",1,"incorrect",0.7605,7,1,0,15.9342465753425,15,"Adolescents",11
"1208","low_switch",0,"too_slow",NA,8,1,NA,15.9342465753425,15,"Adolescents",11
"1209","low_switch",0,"correct",2.9144,9,1,1,15.9342465753425,15,"Adolescents",11
"1210","low_switch",0,"correct",1.5535,10,1,1,15.9342465753425,15,"Adolescents",11
"1211","low_switch",0,"correct",1.3524,11,1,1,15.9342465753425,15,"Adolescents",11
"1212","low_switch",1,"incorrect",1.5202,12,1,0,15.9342465753425,15,"Adolescents",11
"1213","low_switch",0,"correct",2.1227,13,1,1,15.9342465753425,15,"Adolescents",11
"1214","low_switch",0,"correct",1.4174,14,1,1,15.9342465753425,15,"Adolescents",11
"1215","low_switch",1,"correct",1.442,15,1,1,15.9342465753425,15,"Adolescents",11
"1216","low_switch",0,"correct",0.9172,16,1,1,15.9342465753425,15,"Adolescents",11
"1217","low_switch",0,"correct",0.8515,17,1,1,15.9342465753425,15,"Adolescents",11
"1218","low_switch",0,"correct",1.1095,18,1,1,15.9342465753425,15,"Adolescents",11
"1219","low_switch",0,"correct",2.5668,19,1,1,15.9342465753425,15,"Adolescents",11
"1220","low_switch",0,"correct",1.0955,20,1,1,15.9342465753425,15,"Adolescents",11
"1221","low_switch",0,"correct",0.65,21,1,1,15.9342465753425,15,"Adolescents",11
"1222","low_switch",0,"incorrect",0.8339,22,1,0,15.9342465753425,15,"Adolescents",11
"1223","low_switch",1,"correct",1.0062,23,1,1,15.9342465753425,15,"Adolescents",11
"1224","low_switch",0,"correct",1.0712,24,1,1,15.9342465753425,15,"Adolescents",11
"1225","low_switch",0,"incorrect",2.5178,25,1,0,15.9342465753425,15,"Adolescents",11
"1226","low_switch",1,"correct",2.482,26,1,1,15.9342465753425,15,"Adolescents",11
"1227","low_switch",0,"correct",1.7408,27,1,1,15.9342465753425,15,"Adolescents",11
"1228","low_switch",0,"correct",1.4886,28,1,1,15.9342465753425,15,"Adolescents",11
"1229","low_switch",0,"correct",0.7996,29,1,1,15.9342465753425,15,"Adolescents",11
"1230","low_switch",0,"correct",2.1885,30,1,1,15.9342465753425,15,"Adolescents",11
"1231","high_switch",0,"correct",1.5207,31,2,1,15.9342465753425,15,"Adolescents",11
"1232","high_switch",0,"correct",1.4087,32,2,1,15.9342465753425,15,"Adolescents",11
"1233","high_switch",0,"correct",2.5951,33,2,1,15.9342465753425,15,"Adolescents",11
"1234","high_switch",1,"correct",1.5171,34,2,1,15.9342465753425,15,"Adolescents",11
"1235","high_switch",1,"correct",2.2267,35,2,1,15.9342465753425,15,"Adolescents",11
"1236","high_switch",0,"correct",1.3579,36,2,1,15.9342465753425,15,"Adolescents",11
"1237","high_switch",1,"incorrect",2.2117,37,2,0,15.9342465753425,15,"Adolescents",11
"1238","high_switch",0,"correct",1.9866,38,2,1,15.9342465753425,15,"Adolescents",11
"1239","high_switch",1,"correct",2.4907,39,2,1,15.9342465753425,15,"Adolescents",11
"1240","high_switch",0,"correct",1.239,40,2,1,15.9342465753425,15,"Adolescents",11
"1241","high_switch",0,"correct",2.1163,41,2,1,15.9342465753425,15,"Adolescents",11
"1242","high_switch",0,"correct",1.7597,42,2,1,15.9342465753425,15,"Adolescents",11
"1243","high_switch",1,"correct",2.0895,43,2,1,15.9342465753425,15,"Adolescents",11
"1244","high_switch",1,"correct",1.8657,44,2,1,15.9342465753425,15,"Adolescents",11
"1245","high_switch",0,"correct",1.0901,45,2,1,15.9342465753425,15,"Adolescents",11
"1246","high_switch",1,"correct",2.4255,46,2,1,15.9342465753425,15,"Adolescents",11
"1247","high_switch",1,"correct",0.938,47,2,1,15.9342465753425,15,"Adolescents",11
"1248","high_switch",1,"correct",1.776,48,2,1,15.9342465753425,15,"Adolescents",11
"1249","high_switch",1,"correct",1.684,49,2,1,15.9342465753425,15,"Adolescents",11
"1250","high_switch",0,"correct",2.3431,50,2,1,15.9342465753425,15,"Adolescents",11
"1251","high_switch",0,"correct",2.286,51,2,1,15.9342465753425,15,"Adolescents",11
"1252","high_switch",1,"correct",1.3784,52,2,1,15.9342465753425,15,"Adolescents",11
"1253","high_switch",0,"correct",1.3122,53,2,1,15.9342465753425,15,"Adolescents",11
"1254","high_switch",1,"correct",1.7084,54,2,1,15.9342465753425,15,"Adolescents",11
"1255","high_switch",1,"correct",2.8908,55,2,1,15.9342465753425,15,"Adolescents",11
"1256","high_switch",1,"correct",2.0184,56,2,1,15.9342465753425,15,"Adolescents",11
"1257","high_switch",0,"incorrect",0.0592,57,2,0,15.9342465753425,15,"Adolescents",11
"1258","high_switch",0,"correct",2.3036,58,2,1,15.9342465753425,15,"Adolescents",11
"1259","high_switch",0,"correct",1.0452,59,2,1,15.9342465753425,15,"Adolescents",11
"1260","high_switch",1,"correct",1.0498,60,2,1,15.9342465753425,15,"Adolescents",11
"1261","low_switch",0,"too_slow",NA,61,3,NA,15.9342465753425,15,"Adolescents",11
"1262","low_switch",0,"too_slow",NA,62,3,NA,15.9342465753425,15,"Adolescents",11
