trial_type,do_switch,resp_type,keyTrial.rt,trial_num,block_num,correct,ExactAge,FlooredAge,AgeGroup,participant
low_switch,0,too_slow,NA,1,1,NA,20.378082191780823,20,Adults,1
low_switch,0,correct,0.6679,2,1,1,20.378082191780823,20,Adults,1
low_switch,0,correct,0.9337,3,1,1,20.378082191780823,20,Adults,1
low_switch,0,correct,0.7525,4,1,1,20.378082191780823,20,Adults,1
low_switch,0,correct,0.8345,5,1,1,20.378082191780823,20,Adults,1
low_switch,0,correct,0.6681,6,1,1,20.378082191780823,20,Adults,1
low_switch,0,correct,0.7002,7,1,1,20.378082191780823,20,Adults,1
low_switch,0,correct,0.6671,8,1,1,20.378082191780823,20,Adults,1
low_switch,0,correct,0.8176,9,1,1,20.378082191780823,20,Adults,1
low_switch,0,correct,0.5343,10,1,1,20.378082191780823,20,Adults,1
low_switch,0,correct,0.5506,11,1,1,20.378082191780823,20,Adults,1
low_switch,0,correct,0.5169,12,1,1,20.378082191780823,20,Adults,1
low_switch,1,correct,0.9838,13,1,1,20.378082191780823,20,Adults,1
low_switch,0,correct,0.668,14,1,1,20.378082191780823,20,Adults,1
low_switch,1,correct,1.0676,15,1,1,20.378082191780823,20,Adults,1
low_switch,1,correct,0.868,16,1,1,20.378082191780823,20,Adults,1
low_switch,0,correct,0.5996,17,1,1,20.378082191780823,20,Adults,1
low_switch,0,correct,0.6844,18,1,1,20.378082191780823,20,Adults,1
low_switch,1,correct,0.9014,19,1,1,20.378082191780823,20,Adults,1
low_switch,0,correct,0.6169,20,1,1,20.378082191780823,20,Adults,1
low_switch,0,correct,0.6191,21,1,1,20.378082191780823,20,Adults,1
low_switch,0,correct,0.5349,22,1,1,20.378082191780823,20,Adults,1
low_switch,1,correct,0.9339,23,1,1,20.378082191780823,20,Adults,1
low_switch,0,correct,0.5005,24,1,1,20.378082191780823,20,Adults,1
low_switch,0,correct,0.6176,25,1,1,20.378082191780823,20,Adults,1
low_switch,0,correct,0.6002,26,1,1,20.378082191780823,20,Adults,1
low_switch,0,correct,0.4342,27,1,1,20.378082191780823,20,Adults,1
low_switch,0,correct,0.4671,28,1,1,20.378082191780823,20,Adults,1
low_switch,1,correct,0.7182,29,1,1,20.378082191780823,20,Adults,1
low_switch,0,correct,0.5678,30,1,1,20.378082191780823,20,Adults,1
high_switch,0,correct,0.5505,31,2,1,20.378082191780823,20,Adults,1
high_switch,0,correct,0.8337,32,2,1,20.378082191780823,20,Adults,1
high_switch,1,correct,0.6337,33,2,1,20.378082191780823,20,Adults,1
high_switch,0,correct,0.5165,34,2,1,20.378082191780823,20,Adults,1
high_switch,1,correct,0.7012,35,2,1,20.378082191780823,20,Adults,1
high_switch,0,correct,0.5345,36,2,1,20.378082191780823,20,Adults,1
high_switch,1,correct,0.4997,37,2,1,20.378082191780823,20,Adults,1
high_switch,1,correct,0.667,38,2,1,20.378082191780823,20,Adults,1
high_switch,1,correct,1.0512,39,2,1,20.378082191780823,20,Adults,1
high_switch,1,correct,0.6338,40,2,1,20.378082191780823,20,Adults,1
high_switch,1,correct,0.55,41,2,1,20.378082191780823,20,Adults,1
high_switch,0,correct,0.5179,42,2,1,20.378082191780823,20,Adults,1
high_switch,0,correct,0.8174,43,2,1,20.378082191780823,20,Adults,1
high_switch,1,correct,0.9011,44,2,1,20.378082191780823,20,Adults,1
high_switch,0,correct,0.6005,45,2,1,20.378082191780823,20,Adults,1
high_switch,0,correct,0.5668,46,2,1,20.378082191780823,20,Adults,1
high_switch,1,correct,0.6831,47,2,1,20.378082191780823,20,Adults,1
high_switch,1,correct,0.5336,48,2,1,20.378082191780823,20,Adults,1
high_switch,0,correct,0.501,49,2,1,20.378082191780823,20,Adults,1
high_switch,1,correct,0.4677,50,2,1,20.378082191780823,20,Adults,1
high_switch,1,correct,0.6685,51,2,1,20.378082191780823,20,Adults,1
high_switch,0,correct,0.5848,52,2,1,20.378082191780823,20,Adults,1
high_switch,1,correct,0.5676,53,2,1,20.378082191780823,20,Adults,1
high_switch,1,correct,0.7845,54,2,1,20.378082191780823,20,Adults,1
high_switch,0,correct,0.5006,55,2,1,20.378082191780823,20,Adults,1
high_switch,0,correct,0.567,56,2,1,20.378082191780823,20,Adults,1
high_switch,1,correct,0.567,57,2,1,20.378082191780823,20,Adults,1
high_switch,0,correct,0.6011,58,2,1,20.378082191780823,20,Adults,1
high_switch,0,correct,0.4839,59,2,1,20.378082191780823,20,Adults,1
high_switch,0,correct,0.4674,60,2,1,20.378082191780823,20,Adults,1
low_switch,0,correct,0.7841,61,3,1,20.378082191780823,20,Adults,1
low_switch,1,correct,0.6014,62,3,1,20.378082191780823,20,Adults,1
low_switch,1,correct,0.7845,63,3,1,20.378082191780823,20,Adults,1
low_switch,0,correct,0.4673,64,3,1,20.378082191780823,20,Adults,1
low_switch,0,correct,0.4675,65,3,1,20.378082191780823,20,Adults,1
low_switch,0,correct,0.568,66,3,1,20.378082191780823,20,Adults,1
low_switch,0,correct,0.4494,67,3,1,20.378082191780823,20,Adults,1
low_switch,0,correct,0.4678,68,3,1,20.378082191780823,20,Adults,1
low_switch,0,correct,0.4502,69,3,1,20.378082191780823,20,Adults,1
low_switch,0,correct,0.4007,70,3,1,20.378082191780823,20,Adults,1
low_switch,0,correct,0.4349,71,3,1,20.378082191780823,20,Adults,1
low_switch,0,correct,0.5344,72,3,1,20.378082191780823,20,Adults,1
low_switch,0,correct,0.4675,73,3,1,20.378082191780823,20,Adults,1
low_switch,0,correct,0.4008,74,3,1,20.378082191780823,20,Adults,1
low_switch,0,correct,0.4003,75,3,1,20.378082191780823,20,Adults,1
low_switch,0,correct,0.4008,76,3,1,20.378082191780823,20,Adults,1
low_switch,0,correct,0.4179,77,3,1,20.378082191780823,20,Adults,1
low_switch,0,correct,0.4667,78,3,1,20.378082191780823,20,Adults,1
low_switch,0,correct,0.6172,79,3,1,20.378082191780823,20,Adults,1
low_switch,0,correct,0.4007,80,3,1,20.378082191780823,20,Adults,1
low_switch,0,correct,0.368,81,3,1,20.378082191780823,20,Adults,1
low_switch,0,correct,0.6513,82,3,1,20.378082191780823,20,Adults,1
low_switch,1,correct,0.8501,83,3,1,20.378082191780823,20,Adults,1
low_switch,1,correct,0.634,84,3,1,20.378082191780823,20,Adults,1
low_switch,0,correct,0.5347,85,3,1,20.378082191780823,20,Adults,1
low_switch,0,correct,0.5007,86,3,1,20.378082191780823,20,Adults,1
low_switch,1,correct,0.801,87,3,1,20.378082191780823,20,Adults,1
low_switch,1,correct,0.6001,88,3,1,20.378082191780823,20,Adults,1
low_switch,0,correct,0.5515,89,3,1,20.378082191780823,20,Adults,1
low_switch,0,correct,0.5015,90,3,1,20.378082191780823,20,Adults,1
high_switch,0,correct,0.5007,91,4,1,20.378082191780823,20,Adults,1
high_switch,1,correct,0.5173,92,4,1,20.378082191780823,20,Adults,1
high_switch,0,correct,0.4172,93,4,1,20.378082191780823,20,Adults,1
high_switch,0,correct,0.8508,94,4,1,20.378082191780823,20,Adults,1
high_switch,0,correct,0.5845,95,4,1,20.378082191780823,20,Adults,1
high_switch,1,correct,0.6351,96,4,1,20.378082191780823,20,Adults,1
high_switch,0,correct,0.6507,97,4,1,20.378082191780823,20,Adults,1
high_switch,1,correct,0.4678,98,4,1,20.378082191780823,20,Adults,1
high_switch,0,correct,0.4336,99,4,1,20.378082191780823,20,Adults,1
high_switch,1,correct,0.5498,100,4,1,20.378082191780823,20,Adults,1
high_switch,1,correct,0.5673,101,4,1,20.378082191780823,20,Adults,1
high_switch,1,correct,0.5339,102,4,1,20.378082191780823,20,Adults,1
high_switch,1,correct,0.5178,103,4,1,20.378082191780823,20,Adults,1
high_switch,1,correct,0.9176,104,4,1,20.378082191780823,20,Adults,1
high_switch,0,correct,0.6329,105,4,1,20.378082191780823,20,Adults,1
high_switch,1,correct,0.5514,106,4,1,20.378082191780823,20,Adults,1
high_switch,0,correct,0.5676,107,4,1,20.378082191780823,20,Adults,1
high_switch,1,correct,0.5846,108,4,1,20.378082191780823,20,Adults,1
high_switch,1,correct,0.467,109,4,1,20.378082191780823,20,Adults,1
high_switch,0,correct,0.4,110,4,1,20.378082191780823,20,Adults,1
high_switch,0,correct,0.4675,111,4,1,20.378082191780823,20,Adults,1
high_switch,1,correct,0.6505,112,4,1,20.378082191780823,20,Adults,1
high_switch,1,correct,0.4833,113,4,1,20.378082191780823,20,Adults,1
high_switch,0,correct,0.6667,114,4,1,20.378082191780823,20,Adults,1
high_switch,0,correct,0.4836,115,4,1,20.378082191780823,20,Adults,1
high_switch,0,correct,0.4006,116,4,1,20.378082191780823,20,Adults,1
high_switch,1,correct,0.4677,117,4,1,20.378082191780823,20,Adults,1
high_switch,0,correct,0.4848,118,4,1,20.378082191780823,20,Adults,1
high_switch,0,correct,0.617,119,4,1,20.378082191780823,20,Adults,1
high_switch,1,correct,0.401,120,4,1,20.378082191780823,20,Adults,1
low_switch,0,too_slow,NA,1,1,NA,19.97808219178082,19,Adults,2
low_switch,0,correct,0.864,2,1,1,19.97808219178082,19,Adults,2
low_switch,0,correct,0.897,3,1,1,19.97808219178082,19,Adults,2
low_switch,0,correct,0.7682,4,1,1,19.97808219178082,19,Adults,2
low_switch,0,correct,0.7235,5,1,1,19.97808219178082,19,Adults,2
low_switch,0,correct,0.5191,6,1,1,19.97808219178082,19,Adults,2
low_switch,1,correct,1.0483,7,1,1,19.97808219178082,19,Adults,2
low_switch,0,correct,0.5832,8,1,1,19.97808219178082,19,Adults,2
low_switch,1,correct,0.9488,9,1,1,19.97808219178082,19,Adults,2
low_switch,0,correct,0.6049,10,1,1,19.97808219178082,19,Adults,2
low_switch,1,correct,0.5794,11,1,1,19.97808219178082,19,Adults,2
low_switch,0,correct,0.5782,12,1,1,19.97808219178082,19,Adults,2
low_switch,0,correct,0.6525,13,1,1,19.97808219178082,19,Adults,2
low_switch,1,correct,0.9035,14,1,1,19.97808219178082,19,Adults,2
low_switch,0,correct,0.5066,15,1,1,19.97808219178082,19,Adults,2
low_switch,0,correct,0.5735,16,1,1,19.97808219178082,19,Adults,2
low_switch,0,correct,0.6261,17,1,1,19.97808219178082,19,Adults,2
low_switch,0,correct,0.5334,18,1,1,19.97808219178082,19,Adults,2
low_switch,1,correct,0.7831,19,1,1,19.97808219178082,19,Adults,2
low_switch,0,correct,0.4864,20,1,1,19.97808219178082,19,Adults,2
low_switch,0,correct,0.6544,21,1,1,19.97808219178082,19,Adults,2
low_switch,0,correct,0.5357,22,1,1,19.97808219178082,19,Adults,2
low_switch,1,correct,0.7217,23,1,1,19.97808219178082,19,Adults,2
low_switch,0,too_slow,NA,24,1,NA,19.97808219178082,19,Adults,2
low_switch,0,correct,0.5733,25,1,1,19.97808219178082,19,Adults,2
low_switch,0,correct,0.7793,26,1,1,19.97808219178082,19,Adults,2
low_switch,0,correct,0.7429,27,1,1,19.97808219178082,19,Adults,2
low_switch,0,correct,0.6637,28,1,1,19.97808219178082,19,Adults,2
low_switch,0,correct,0.6325,29,1,1,19.97808219178082,19,Adults,2
low_switch,0,correct,0.6418,30,1,1,19.97808219178082,19,Adults,2
high_switch,0,correct,0.4905,31,2,1,19.97808219178082,19,Adults,2
high_switch,1,correct,1.0023,32,2,1,19.97808219178082,19,Adults,2
high_switch,0,correct,0.4556,33,2,1,19.97808219178082,19,Adults,2
high_switch,0,correct,0.5186,34,2,1,19.97808219178082,19,Adults,2
high_switch,0,correct,0.5323,35,2,1,19.97808219178082,19,Adults,2
high_switch,0,correct,0.4823,36,2,1,19.97808219178082,19,Adults,2
high_switch,1,correct,0.7895,37,2,1,19.97808219178082,19,Adults,2
high_switch,0,correct,0.732,38,2,1,19.97808219178082,19,Adults,2
high_switch,1,correct,0.7027,39,2,1,19.97808219178082,19,Adults,2
high_switch,0,correct,0.4915,40,2,1,19.97808219178082,19,Adults,2
high_switch,1,correct,0.6867,41,2,1,19.97808219178082,19,Adults,2
high_switch,1,correct,0.605,42,2,1,19.97808219178082,19,Adults,2
high_switch,1,too_slow,NA,43,2,NA,19.97808219178082,19,Adults,2
high_switch,1,correct,0.6185,44,2,1,19.97808219178082,19,Adults,2
high_switch,1,correct,0.7368,45,2,1,19.97808219178082,19,Adults,2
high_switch,0,correct,0.7541,46,2,1,19.97808219178082,19,Adults,2
high_switch,0,correct,0.9297,47,2,1,19.97808219178082,19,Adults,2
high_switch,1,correct,0.5298,48,2,1,19.97808219178082,19,Adults,2
high_switch,1,correct,0.6606,49,2,1,19.97808219178082,19,Adults,2
high_switch,1,correct,0.5028,50,2,1,19.97808219178082,19,Adults,2
high_switch,0,correct,0.5115,51,2,1,19.97808219178082,19,Adults,2
high_switch,0,correct,0.4917,52,2,1,19.97808219178082,19,Adults,2
high_switch,1,correct,0.5526,53,2,1,19.97808219178082,19,Adults,2
high_switch,0,correct,0.8593,54,2,1,19.97808219178082,19,Adults,2
high_switch,1,correct,0.5897,55,2,1,19.97808219178082,19,Adults,2
high_switch,1,correct,0.936,56,2,1,19.97808219178082,19,Adults,2
high_switch,0,correct,0.5554,57,2,1,19.97808219178082,19,Adults,2
high_switch,0,correct,0.5931,58,2,1,19.97808219178082,19,Adults,2
high_switch,1,correct,0.6906,59,2,1,19.97808219178082,19,Adults,2
high_switch,0,correct,0.5578,60,2,1,19.97808219178082,19,Adults,2
low_switch,0,correct,0.7753,61,3,1,19.97808219178082,19,Adults,2
low_switch,0,correct,0.7888,62,3,1,19.97808219178082,19,Adults,2
low_switch,0,correct,0.5743,63,3,1,19.97808219178082,19,Adults,2
low_switch,0,correct,0.9394,64,3,1,19.97808219178082,19,Adults,2
low_switch,0,correct,0.5903,65,3,1,19.97808219178082,19,Adults,2
low_switch,0,correct,0.5981,66,3,1,19.97808219178082,19,Adults,2
low_switch,1,correct,1.0756,67,3,1,19.97808219178082,19,Adults,2
low_switch,0,correct,0.549,68,3,1,19.97808219178082,19,Adults,2
low_switch,0,correct,0.5553,69,3,1,19.97808219178082,19,Adults,2
low_switch,1,correct,0.7091,70,3,1,19.97808219178082,19,Adults,2
low_switch,0,correct,0.7226,71,3,1,19.97808219178082,19,Adults,2
low_switch,0,correct,0.5727,72,3,1,19.97808219178082,19,Adults,2
low_switch,0,correct,0.6154,73,3,1,19.97808219178082,19,Adults,2
low_switch,0,correct,0.6046,74,3,1,19.97808219178082,19,Adults,2
low_switch,0,correct,0.6355,75,3,1,19.97808219178082,19,Adults,2
low_switch,1,correct,0.5418,76,3,1,19.97808219178082,19,Adults,2
low_switch,0,correct,0.4537,77,3,1,19.97808219178082,19,Adults,2
low_switch,0,correct,0.5188,78,3,1,19.97808219178082,19,Adults,2
low_switch,0,correct,0.4902,79,3,1,19.97808219178082,19,Adults,2
low_switch,1,correct,0.6671,80,3,1,19.97808219178082,19,Adults,2
low_switch,0,correct,0.5922,81,3,1,19.97808219178082,19,Adults,2
low_switch,0,correct,0.5524,82,3,1,19.97808219178082,19,Adults,2
low_switch,0,correct,0.8254,83,3,1,19.97808219178082,19,Adults,2
low_switch,0,correct,0.6756,84,3,1,19.97808219178082,19,Adults,2
low_switch,1,correct,0.5562,85,3,1,19.97808219178082,19,Adults,2
low_switch,0,correct,0.6587,86,3,1,19.97808219178082,19,Adults,2
low_switch,0,correct,0.6375,87,3,1,19.97808219178082,19,Adults,2
low_switch,0,correct,0.5867,88,3,1,19.97808219178082,19,Adults,2
low_switch,1,correct,0.5838,89,3,1,19.97808219178082,19,Adults,2
low_switch,0,correct,0.5726,90,3,1,19.97808219178082,19,Adults,2
high_switch,0,correct,0.5541,91,4,1,19.97808219178082,19,Adults,2
high_switch,0,correct,0.4657,92,4,1,19.97808219178082,19,Adults,2
high_switch,0,correct,0.5677,93,4,1,19.97808219178082,19,Adults,2
high_switch,0,correct,0.5474,94,4,1,19.97808219178082,19,Adults,2
high_switch,1,correct,0.5684,95,4,1,19.97808219178082,19,Adults,2
high_switch,0,correct,0.6189,96,4,1,19.97808219178082,19,Adults,2
high_switch,1,correct,0.6377,97,4,1,19.97808219178082,19,Adults,2
high_switch,0,correct,0.6344,98,4,1,19.97808219178082,19,Adults,2
high_switch,0,correct,0.8239,99,4,1,19.97808219178082,19,Adults,2
high_switch,1,correct,0.5337,100,4,1,19.97808219178082,19,Adults,2
high_switch,1,correct,0.5388,101,4,1,19.97808219178082,19,Adults,2
high_switch,1,correct,0.4678,102,4,1,19.97808219178082,19,Adults,2
high_switch,1,correct,0.6561,103,4,1,19.97808219178082,19,Adults,2
high_switch,0,correct,0.5101,104,4,1,19.97808219178082,19,Adults,2
high_switch,0,correct,0.539,105,4,1,19.97808219178082,19,Adults,2
high_switch,1,correct,0.5548,106,4,1,19.97808219178082,19,Adults,2
high_switch,0,correct,0.4731,107,4,1,19.97808219178082,19,Adults,2
high_switch,0,correct,0.4842,108,4,1,19.97808219178082,19,Adults,2
high_switch,1,correct,0.6674,109,4,1,19.97808219178082,19,Adults,2
high_switch,0,correct,0.6307,110,4,1,19.97808219178082,19,Adults,2
high_switch,0,correct,0.5321,111,4,1,19.97808219178082,19,Adults,2
high_switch,0,correct,0.5035,112,4,1,19.97808219178082,19,Adults,2
high_switch,1,correct,0.5692,113,4,1,19.97808219178082,19,Adults,2
high_switch,0,correct,0.487,114,4,1,19.97808219178082,19,Adults,2
high_switch,1,correct,0.5557,115,4,1,19.97808219178082,19,Adults,2
high_switch,1,correct,0.4556,116,4,1,19.97808219178082,19,Adults,2
high_switch,1,correct,0.6766,117,4,1,19.97808219178082,19,Adults,2
high_switch,1,correct,0.4494,118,4,1,19.97808219178082,19,Adults,2
high_switch,1,correct,0.6738,119,4,1,19.97808219178082,19,Adults,2
high_switch,1,correct,0.468,120,4,1,19.97808219178082,19,Adults,2
low_switch,0,correct,1.2491,1,1,1,14.75068493150685,14,Adolescents,3
low_switch,0,correct,0.9212,2,1,1,14.75068493150685,14,Adolescents,3
low_switch,0,too_slow,NA,3,1,NA,14.75068493150685,14,Adolescents,3
low_switch,1,correct,0.7882,4,1,1,14.75068493150685,14,Adolescents,3
low_switch,1,correct,1.1085,5,1,1,14.75068493150685,14,Adolescents,3
low_switch,0,correct,0.8548,6,1,1,14.75068493150685,14,Adolescents,3
low_switch,0,correct,1.0455,7,1,1,14.75068493150685,14,Adolescents,3
low_switch,1,correct,0.854,8,1,1,14.75068493150685,14,Adolescents,3
low_switch,0,correct,0.8696,9,1,1,14.75068493150685,14,Adolescents,3
low_switch,0,correct,0.866,10,1,1,14.75068493150685,14,Adolescents,3
low_switch,0,correct,0.7201,11,1,1,14.75068493150685,14,Adolescents,3
low_switch,0,correct,0.9732,12,1,1,14.75068493150685,14,Adolescents,3
low_switch,0,correct,0.6522,13,1,1,14.75068493150685,14,Adolescents,3
low_switch,0,correct,0.6654,14,1,1,14.75068493150685,14,Adolescents,3
low_switch,0,correct,0.6802,15,1,1,14.75068493150685,14,Adolescents,3
low_switch,0,correct,0.6048,16,1,1,14.75068493150685,14,Adolescents,3
low_switch,0,correct,0.5887,17,1,1,14.75068493150685,14,Adolescents,3
low_switch,0,correct,0.664,18,1,1,14.75068493150685,14,Adolescents,3
low_switch,0,correct,0.7039,19,1,1,14.75068493150685,14,Adolescents,3
low_switch,0,correct,0.5616,20,1,1,14.75068493150685,14,Adolescents,3
low_switch,0,correct,0.6196,21,1,1,14.75068493150685,14,Adolescents,3
low_switch,0,correct,0.637,22,1,1,14.75068493150685,14,Adolescents,3
low_switch,0,correct,0.5656,23,1,1,14.75068493150685,14,Adolescents,3
low_switch,0,correct,0.7189,24,1,1,14.75068493150685,14,Adolescents,3
low_switch,0,correct,0.5472,25,1,1,14.75068493150685,14,Adolescents,3
low_switch,1,correct,1.249,26,1,1,14.75068493150685,14,Adolescents,3
low_switch,0,correct,0.9383,27,1,1,14.75068493150685,14,Adolescents,3
low_switch,1,correct,0.8791,28,1,1,14.75068493150685,14,Adolescents,3
low_switch,1,correct,1.1373,29,1,1,14.75068493150685,14,Adolescents,3
low_switch,0,correct,0.9943,30,1,1,14.75068493150685,14,Adolescents,3
high_switch,0,correct,0.9996,31,2,1,14.75068493150685,14,Adolescents,3
high_switch,0,correct,0.9699,32,2,1,14.75068493150685,14,Adolescents,3
high_switch,0,correct,0.7894,33,2,1,14.75068493150685,14,Adolescents,3
high_switch,0,correct,0.6815,34,2,1,14.75068493150685,14,Adolescents,3
high_switch,1,correct,0.768,35,2,1,14.75068493150685,14,Adolescents,3
high_switch,1,correct,1.0489,36,2,1,14.75068493150685,14,Adolescents,3
high_switch,0,correct,0.7538,37,2,1,14.75068493150685,14,Adolescents,3
high_switch,0,correct,0.7766,38,2,1,14.75068493150685,14,Adolescents,3
high_switch,1,correct,0.7734,39,2,1,14.75068493150685,14,Adolescents,3
high_switch,1,correct,0.9205,40,2,1,14.75068493150685,14,Adolescents,3
high_switch,1,correct,0.7235,41,2,1,14.75068493150685,14,Adolescents,3
high_switch,0,correct,1.3639,42,2,1,14.75068493150685,14,Adolescents,3
high_switch,0,correct,0.5275,43,2,1,14.75068493150685,14,Adolescents,3
high_switch,0,correct,0.5896,44,2,1,14.75068493150685,14,Adolescents,3
high_switch,0,correct,0.9161,45,2,1,14.75068493150685,14,Adolescents,3
high_switch,0,correct,0.518,46,2,1,14.75068493150685,14,Adolescents,3
high_switch,1,correct,1.0073,47,2,1,14.75068493150685,14,Adolescents,3
high_switch,1,correct,0.8067,48,2,1,14.75068493150685,14,Adolescents,3
high_switch,1,correct,0.8864,49,2,1,14.75068493150685,14,Adolescents,3
high_switch,0,correct,0.6442,50,2,1,14.75068493150685,14,Adolescents,3
high_switch,1,correct,0.5491,51,2,1,14.75068493150685,14,Adolescents,3
high_switch,1,correct,0.6404,52,2,1,14.75068493150685,14,Adolescents,3
high_switch,0,correct,0.7015,53,2,1,14.75068493150685,14,Adolescents,3
high_switch,1,correct,0.5833,54,2,1,14.75068493150685,14,Adolescents,3
high_switch,1,correct,0.8338,55,2,1,14.75068493150685,14,Adolescents,3
high_switch,1,correct,0.8689,56,2,1,14.75068493150685,14,Adolescents,3
high_switch,0,correct,0.5737,57,2,1,14.75068493150685,14,Adolescents,3
high_switch,1,correct,0.7454,58,2,1,14.75068493150685,14,Adolescents,3
high_switch,0,correct,0.7269,59,2,1,14.75068493150685,14,Adolescents,3
high_switch,1,correct,0.9153,60,2,1,14.75068493150685,14,Adolescents,3
low_switch,0,correct,0.7356,61,3,1,14.75068493150685,14,Adolescents,3
low_switch,0,correct,0.9965,62,3,1,14.75068493150685,14,Adolescents,3
low_switch,0,correct,0.9837,63,3,1,14.75068493150685,14,Adolescents,3
low_switch,0,correct,1.0855,64,3,1,14.75068493150685,14,Adolescents,3
low_switch,0,correct,0.6685,65,3,1,14.75068493150685,14,Adolescents,3
low_switch,0,correct,1.1482,66,3,1,14.75068493150685,14,Adolescents,3
low_switch,0,correct,0.5942,67,3,1,14.75068493150685,14,Adolescents,3
low_switch,0,correct,0.6755,68,3,1,14.75068493150685,14,Adolescents,3
low_switch,1,correct,1.0019,69,3,1,14.75068493150685,14,Adolescents,3
low_switch,0,correct,0.5942,70,3,1,14.75068493150685,14,Adolescents,3
low_switch,0,correct,0.5033,71,3,1,14.75068493150685,14,Adolescents,3
low_switch,1,correct,1.3876,72,3,1,14.75068493150685,14,Adolescents,3
low_switch,0,correct,0.7013,73,3,1,14.75068493150685,14,Adolescents,3
low_switch,0,correct,0.6333,74,3,1,14.75068493150685,14,Adolescents,3
low_switch,0,correct,1.2857,75,3,1,14.75068493150685,14,Adolescents,3
low_switch,0,correct,0.7177,76,3,1,14.75068493150685,14,Adolescents,3
low_switch,0,correct,0.6084,77,3,1,14.75068493150685,14,Adolescents,3
low_switch,0,correct,0.6702,78,3,1,14.75068493150685,14,Adolescents,3
low_switch,0,correct,0.4897,79,3,1,14.75068493150685,14,Adolescents,3
low_switch,0,correct,0.6137,80,3,1,14.75068493150685,14,Adolescents,3
low_switch,1,correct,1.0855,81,3,1,14.75068493150685,14,Adolescents,3
low_switch,0,correct,0.6249,82,3,1,14.75068493150685,14,Adolescents,3
low_switch,1,correct,1.2029,83,3,1,14.75068493150685,14,Adolescents,3
low_switch,1,correct,0.5907,84,3,1,14.75068493150685,14,Adolescents,3
low_switch,0,too_slow,NA,85,3,NA,14.75068493150685,14,Adolescents,3
low_switch,0,correct,0.6987,86,3,1,14.75068493150685,14,Adolescents,3
low_switch,0,correct,0.7005,87,3,1,14.75068493150685,14,Adolescents,3
low_switch,1,correct,0.8932,88,3,1,14.75068493150685,14,Adolescents,3
low_switch,0,correct,0.7287,89,3,1,14.75068493150685,14,Adolescents,3
low_switch,0,correct,0.5342,90,3,1,14.75068493150685,14,Adolescents,3
high_switch,0,correct,0.7558,91,4,1,14.75068493150685,14,Adolescents,3
high_switch,0,correct,0.7662,92,4,1,14.75068493150685,14,Adolescents,3
high_switch,0,correct,0.5427,93,4,1,14.75068493150685,14,Adolescents,3
high_switch,1,correct,0.6422,94,4,1,14.75068493150685,14,Adolescents,3
high_switch,0,correct,0.931,95,4,1,14.75068493150685,14,Adolescents,3
high_switch,0,correct,0.5832,96,4,1,14.75068493150685,14,Adolescents,3
high_switch,1,correct,0.8164,97,4,1,14.75068493150685,14,Adolescents,3
high_switch,1,correct,0.5962,98,4,1,14.75068493150685,14,Adolescents,3
high_switch,0,correct,0.4844,99,4,1,14.75068493150685,14,Adolescents,3
high_switch,1,correct,0.68,100,4,1,14.75068493150685,14,Adolescents,3
high_switch,1,correct,0.6099,101,4,1,14.75068493150685,14,Adolescents,3
high_switch,0,correct,0.6097,102,4,1,14.75068493150685,14,Adolescents,3
high_switch,1,correct,0.6014,103,4,1,14.75068493150685,14,Adolescents,3
high_switch,1,correct,0.6077,104,4,1,14.75068493150685,14,Adolescents,3
high_switch,0,correct,0.7009,105,4,1,14.75068493150685,14,Adolescents,3
high_switch,1,incorrect,0.597,106,4,0,14.75068493150685,14,Adolescents,3
high_switch,0,correct,0.8573,107,4,1,14.75068493150685,14,Adolescents,3
high_switch,0,correct,0.6254,108,4,1,14.75068493150685,14,Adolescents,3
high_switch,1,correct,0.6559,109,4,1,14.75068493150685,14,Adolescents,3
high_switch,0,correct,0.5103,110,4,1,14.75068493150685,14,Adolescents,3
high_switch,1,correct,0.515,111,4,1,14.75068493150685,14,Adolescents,3
high_switch,0,correct,0.8009,112,4,1,14.75068493150685,14,Adolescents,3
high_switch,1,correct,0.6595,113,4,1,14.75068493150685,14,Adolescents,3
high_switch,0,correct,0.4696,114,4,1,14.75068493150685,14,Adolescents,3
high_switch,0,correct,0.5861,115,4,1,14.75068493150685,14,Adolescents,3
high_switch,0,correct,0.585,116,4,1,14.75068493150685,14,Adolescents,3
high_switch,1,correct,0.702,117,4,1,14.75068493150685,14,Adolescents,3
high_switch,1,correct,0.6178,118,4,1,14.75068493150685,14,Adolescents,3
high_switch,1,correct,0.8331,119,4,1,14.75068493150685,14,Adolescents,3
high_switch,1,correct,0.7181,120,4,1,14.75068493150685,14,Adolescents,3
low_switch,0,correct,0.9661,1,1,1,12.36986301369863,12,Children,4
low_switch,0,too_slow,NA,2,1,NA,12.36986301369863,12,Children,4
low_switch,0,correct,1.1458,3,1,1,12.36986301369863,12,Children,4
low_switch,0,correct,1.1198,4,1,1,12.36986301369863,12,Children,4
low_switch,0,correct,1.4586,5,1,1,12.36986301369863,12,Children,4
low_switch,0,correct,1.0504,6,1,1,12.36986301369863,12,Children,4
low_switch,1,correct,0.9563,7,1,1,12.36986301369863,12,Children,4
low_switch,0,correct,0.7081,8,1,1,12.36986301369863,12,Children,4
low_switch,1,correct,0.9849,9,1,1,12.36986301369863,12,Children,4
low_switch,0,correct,0.7686,10,1,1,12.36986301369863,12,Children,4
low_switch,0,correct,1.1654,11,1,1,12.36986301369863,12,Children,4
low_switch,0,correct,0.9285,12,1,1,12.36986301369863,12,Children,4
low_switch,0,correct,0.7875,13,1,1,12.36986301369863,12,Children,4
low_switch,1,correct,1.0008,14,1,1,12.36986301369863,12,Children,4
low_switch,1,correct,0.8194,15,1,1,12.36986301369863,12,Children,4
low_switch,0,correct,0.8458,16,1,1,12.36986301369863,12,Children,4
low_switch,0,correct,0.7936,17,1,1,12.36986301369863,12,Children,4
low_switch,0,correct,0.8281,18,1,1,12.36986301369863,12,Children,4
low_switch,0,correct,1.0117,19,1,1,12.36986301369863,12,Children,4
low_switch,0,correct,1.1945,20,1,1,12.36986301369863,12,Children,4
low_switch,0,correct,1.2739,21,1,1,12.36986301369863,12,Children,4
low_switch,0,correct,1.2008,22,1,1,12.36986301369863,12,Children,4
low_switch,0,correct,1.2603,23,1,1,12.36986301369863,12,Children,4
low_switch,1,correct,0.8967,24,1,1,12.36986301369863,12,Children,4
low_switch,1,correct,1.2778,25,1,1,12.36986301369863,12,Children,4
low_switch,0,correct,1.1248,26,1,1,12.36986301369863,12,Children,4
low_switch,0,correct,1.0846,27,1,1,12.36986301369863,12,Children,4
low_switch,0,correct,1.1238,28,1,1,12.36986301369863,12,Children,4
low_switch,0,correct,1.2688,29,1,1,12.36986301369863,12,Children,4
low_switch,0,correct,1.1943,30,1,1,12.36986301369863,12,Children,4
high_switch,0,incorrect,0.7512,31,2,0,12.36986301369863,12,Children,4
high_switch,0,correct,0.098,32,2,1,12.36986301369863,12,Children,4
high_switch,0,correct,0.7345,33,2,1,12.36986301369863,12,Children,4
high_switch,0,correct,0.834,34,2,1,12.36986301369863,12,Children,4
high_switch,1,correct,1.0771,35,2,1,12.36986301369863,12,Children,4
high_switch,0,correct,0.7103,36,2,1,12.36986301369863,12,Children,4
high_switch,1,correct,0.989,37,2,1,12.36986301369863,12,Children,4
high_switch,1,correct,0.9846,38,2,1,12.36986301369863,12,Children,4
high_switch,1,correct,0.8083,39,2,1,12.36986301369863,12,Children,4
high_switch,0,correct,1.067,40,2,1,12.36986301369863,12,Children,4
high_switch,1,correct,0.4291,41,2,1,12.36986301369863,12,Children,4
high_switch,0,incorrect,0.6506,42,2,0,12.36986301369863,12,Children,4
high_switch,0,incorrect,0.1241,43,2,0,12.36986301369863,12,Children,4
high_switch,1,correct,1.0485,44,2,1,12.36986301369863,12,Children,4
high_switch,0,correct,0.9369,45,2,1,12.36986301369863,12,Children,4
high_switch,1,correct,0.8501,46,2,1,12.36986301369863,12,Children,4
high_switch,1,correct,1.0519,47,2,1,12.36986301369863,12,Children,4
high_switch,0,correct,0.759,48,2,1,12.36986301369863,12,Children,4
high_switch,0,correct,1.1934,49,2,1,12.36986301369863,12,Children,4
high_switch,1,correct,0.7912,50,2,1,12.36986301369863,12,Children,4
high_switch,0,correct,0.7124,51,2,1,12.36986301369863,12,Children,4
high_switch,1,correct,0.796,52,2,1,12.36986301369863,12,Children,4
high_switch,0,correct,1.1357,53,2,1,12.36986301369863,12,Children,4
high_switch,1,correct,1.329,54,2,1,12.36986301369863,12,Children,4
high_switch,0,correct,0.8762,55,2,1,12.36986301369863,12,Children,4
high_switch,1,correct,0.916,56,2,1,12.36986301369863,12,Children,4
high_switch,1,correct,0.9907,57,2,1,12.36986301369863,12,Children,4
high_switch,1,correct,1.8799,58,2,1,12.36986301369863,12,Children,4
high_switch,0,correct,1.4857,59,2,1,12.36986301369863,12,Children,4
high_switch,1,correct,1.2403,60,2,1,12.36986301369863,12,Children,4
low_switch,0,correct,0.8603,61,3,1,12.36986301369863,12,Children,4
low_switch,0,correct,0.8099,62,3,1,12.36986301369863,12,Children,4
low_switch,0,correct,0.7225,63,3,1,12.36986301369863,12,Children,4
low_switch,0,correct,0.8663,64,3,1,12.36986301369863,12,Children,4
low_switch,0,correct,1.8438,65,3,1,12.36986301369863,12,Children,4
low_switch,1,correct,0.9278,66,3,1,12.36986301369863,12,Children,4
low_switch,0,correct,0.7375,67,3,1,12.36986301369863,12,Children,4
low_switch,1,correct,0.687,68,3,1,12.36986301369863,12,Children,4
low_switch,0,correct,0.8006,69,3,1,12.36986301369863,12,Children,4
low_switch,0,correct,1.0481,70,3,1,12.36986301369863,12,Children,4
low_switch,1,correct,0.9743,71,3,1,12.36986301369863,12,Children,4
low_switch,0,correct,0.9864,72,3,1,12.36986301369863,12,Children,4
low_switch,0,correct,0.7447,73,3,1,12.36986301369863,12,Children,4
low_switch,0,correct,0.6163,74,3,1,12.36986301369863,12,Children,4
low_switch,0,correct,0.627,75,3,1,12.36986301369863,12,Children,4
low_switch,0,correct,0.8918,76,3,1,12.36986301369863,12,Children,4
low_switch,0,correct,0.7263,77,3,1,12.36986301369863,12,Children,4
low_switch,0,correct,0.6566,78,3,1,12.36986301369863,12,Children,4
low_switch,0,correct,0.6207,79,3,1,12.36986301369863,12,Children,4
low_switch,0,correct,0.7778,80,3,1,12.36986301369863,12,Children,4
low_switch,0,correct,0.4881,81,3,1,12.36986301369863,12,Children,4
low_switch,1,correct,0.4046,82,3,1,12.36986301369863,12,Children,4
low_switch,0,correct,1.4189,83,3,1,12.36986301369863,12,Children,4
low_switch,1,correct,0.3802,84,3,1,12.36986301369863,12,Children,4
low_switch,0,correct,0.7075,85,3,1,12.36986301369863,12,Children,4
low_switch,0,correct,0.8986,86,3,1,12.36986301369863,12,Children,4
low_switch,1,correct,1.1862,87,3,1,12.36986301369863,12,Children,4
low_switch,0,correct,1.3074,88,3,1,12.36986301369863,12,Children,4
low_switch,0,correct,1.0627,89,3,1,12.36986301369863,12,Children,4
low_switch,0,correct,0.7549,90,3,1,12.36986301369863,12,Children,4
high_switch,0,correct,0.9423,91,4,1,12.36986301369863,12,Children,4
high_switch,1,correct,0.6536,92,4,1,12.36986301369863,12,Children,4
high_switch,1,correct,0.9697,93,4,1,12.36986301369863,12,Children,4
high_switch,0,correct,1.2405,94,4,1,12.36986301369863,12,Children,4
high_switch,0,correct,1.3477,95,4,1,12.36986301369863,12,Children,4
high_switch,0,correct,1.0231,96,4,1,12.36986301369863,12,Children,4
high_switch,0,correct,1.2291,97,4,1,12.36986301369863,12,Children,4
high_switch,0,correct,1.1939,98,4,1,12.36986301369863,12,Children,4
high_switch,1,correct,1.8445,99,4,1,12.36986301369863,12,Children,4
high_switch,1,correct,1.2745,100,4,1,12.36986301369863,12,Children,4
high_switch,1,correct,1.055,101,4,1,12.36986301369863,12,Children,4
high_switch,0,correct,0.6201,102,4,1,12.36986301369863,12,Children,4
high_switch,1,correct,0.945,103,4,1,12.36986301369863,12,Children,4
high_switch,1,correct,0.8916,104,4,1,12.36986301369863,12,Children,4
high_switch,1,correct,1.5201,105,4,1,12.36986301369863,12,Children,4
high_switch,0,correct,1.0245,106,4,1,12.36986301369863,12,Children,4
high_switch,0,correct,0.9192,107,4,1,12.36986301369863,12,Children,4
high_switch,1,correct,0.8001,108,4,1,12.36986301369863,12,Children,4
high_switch,0,correct,0.7182,109,4,1,12.36986301369863,12,Children,4
high_switch,0,correct,0.6415,110,4,1,12.36986301369863,12,Children,4
high_switch,0,correct,0.5679,111,4,1,12.36986301369863,12,Children,4
high_switch,1,correct,0.7693,112,4,1,12.36986301369863,12,Children,4
high_switch,1,correct,0.6956,113,4,1,12.36986301369863,12,Children,4
high_switch,0,correct,0.8121,114,4,1,12.36986301369863,12,Children,4
high_switch,0,correct,0.7829,115,4,1,12.36986301369863,12,Children,4
high_switch,1,correct,0.9976,116,4,1,12.36986301369863,12,Children,4
high_switch,1,correct,0.7462,117,4,1,12.36986301369863,12,Children,4
high_switch,1,correct,0.9071,118,4,1,12.36986301369863,12,Children,4
high_switch,0,correct,1.0171,119,4,1,12.36986301369863,12,Children,4
high_switch,1,correct,0.724,120,4,1,12.36986301369863,12,Children,4
low_switch,0,too_slow,NA,1,1,NA,17.027397260273972,17,Adolescents,5
low_switch,1,correct,0.6887,2,1,1,17.027397260273972,17,Adolescents,5
low_switch,0,correct,0.7581,3,1,1,17.027397260273972,17,Adolescents,5
low_switch,0,correct,0.6669,4,1,1,17.027397260273972,17,Adolescents,5
low_switch,0,correct,0.7225,5,1,1,17.027397260273972,17,Adolescents,5
low_switch,0,correct,0.5861,6,1,1,17.027397260273972,17,Adolescents,5
low_switch,0,correct,0.6205,7,1,1,17.027397260273972,17,Adolescents,5
low_switch,1,too_slow,NA,8,1,NA,17.027397260273972,17,Adolescents,5
low_switch,0,correct,0.7808,9,1,1,17.027397260273972,17,Adolescents,5
low_switch,1,correct,0.8559,10,1,1,17.027397260273972,17,Adolescents,5
low_switch,0,correct,0.6169,11,1,1,17.027397260273972,17,Adolescents,5
low_switch,0,correct,0.7261,12,1,1,17.027397260273972,17,Adolescents,5
low_switch,1,correct,1.0857,13,1,1,17.027397260273972,17,Adolescents,5
low_switch,0,correct,0.75,14,1,1,17.027397260273972,17,Adolescents,5
low_switch,0,correct,0.9513,15,1,1,17.027397260273972,17,Adolescents,5
low_switch,0,correct,0.944,16,1,1,17.027397260273972,17,Adolescents,5
low_switch,0,correct,0.7637,17,1,1,17.027397260273972,17,Adolescents,5
low_switch,1,correct,0.8688,18,1,1,17.027397260273972,17,Adolescents,5
low_switch,0,correct,0.86,19,1,1,17.027397260273972,17,Adolescents,5
low_switch,0,correct,0.6141,20,1,1,17.027397260273972,17,Adolescents,5
low_switch,0,correct,0.5731,21,1,1,17.027397260273972,17,Adolescents,5
low_switch,0,correct,0.6904,22,1,1,17.027397260273972,17,Adolescents,5
low_switch,0,correct,0.5802,23,1,1,17.027397260273972,17,Adolescents,5
low_switch,0,correct,0.7343,24,1,1,17.027397260273972,17,Adolescents,5
low_switch,0,correct,0.561,25,1,1,17.027397260273972,17,Adolescents,5
low_switch,0,correct,0.55,26,1,1,17.027397260273972,17,Adolescents,5
low_switch,0,correct,0.7047,27,1,1,17.027397260273972,17,Adolescents,5
low_switch,0,correct,0.5992,28,1,1,17.027397260273972,17,Adolescents,5
low_switch,1,too_slow,NA,29,1,NA,17.027397260273972,17,Adolescents,5
low_switch,0,correct,0.9398,30,1,1,17.027397260273972,17,Adolescents,5
high_switch,0,correct,1.0008,31,2,1,17.027397260273972,17,Adolescents,5
high_switch,1,correct,0.7595,32,2,1,17.027397260273972,17,Adolescents,5
high_switch,0,correct,0.6052,33,2,1,17.027397260273972,17,Adolescents,5
high_switch,0,correct,1.0047,34,2,1,17.027397260273972,17,Adolescents,5
high_switch,1,correct,0.9489,35,2,1,17.027397260273972,17,Adolescents,5
high_switch,0,correct,0.7697,36,2,1,17.027397260273972,17,Adolescents,5
high_switch,1,correct,0.9006,37,2,1,17.027397260273972,17,Adolescents,5
high_switch,1,correct,0.7985,38,2,1,17.027397260273972,17,Adolescents,5
high_switch,0,correct,0.6965,39,2,1,17.027397260273972,17,Adolescents,5
high_switch,1,correct,0.6862,40,2,1,17.027397260273972,17,Adolescents,5
high_switch,0,correct,0.6776,41,2,1,17.027397260273972,17,Adolescents,5
high_switch,0,correct,0.6005,42,2,1,17.027397260273972,17,Adolescents,5
high_switch,1,correct,0.7564,43,2,1,17.027397260273972,17,Adolescents,5
high_switch,1,correct,0.5617,44,2,1,17.027397260273972,17,Adolescents,5
high_switch,1,correct,0.7593,45,2,1,17.027397260273972,17,Adolescents,5
high_switch,0,correct,0.7586,46,2,1,17.027397260273972,17,Adolescents,5
high_switch,1,correct,0.6098,47,2,1,17.027397260273972,17,Adolescents,5
high_switch,1,correct,0.7608,48,2,1,17.027397260273972,17,Adolescents,5
high_switch,0,correct,0.6642,49,2,1,17.027397260273972,17,Adolescents,5
high_switch,0,correct,0.6268,50,2,1,17.027397260273972,17,Adolescents,5
high_switch,0,correct,0.7012,51,2,1,17.027397260273972,17,Adolescents,5
high_switch,1,correct,0.9778,52,2,1,17.027397260273972,17,Adolescents,5
high_switch,0,correct,0.6185,53,2,1,17.027397260273972,17,Adolescents,5
high_switch,1,correct,0.9824,54,2,1,17.027397260273972,17,Adolescents,5
high_switch,0,correct,0.7522,55,2,1,17.027397260273972,17,Adolescents,5
high_switch,1,correct,0.7005,56,2,1,17.027397260273972,17,Adolescents,5
high_switch,1,correct,0.7434,57,2,1,17.027397260273972,17,Adolescents,5
high_switch,0,correct,1.055,58,2,1,17.027397260273972,17,Adolescents,5
high_switch,1,correct,0.7819,59,2,1,17.027397260273972,17,Adolescents,5
high_switch,0,correct,0.7161,60,2,1,17.027397260273972,17,Adolescents,5
low_switch,0,correct,0.9645,61,3,1,17.027397260273972,17,Adolescents,5
low_switch,0,correct,0.7215,62,3,1,17.027397260273972,17,Adolescents,5
low_switch,1,correct,0.9347,63,3,1,17.027397260273972,17,Adolescents,5
low_switch,1,correct,0.9229,64,3,1,17.027397260273972,17,Adolescents,5
low_switch,0,correct,0.6315,65,3,1,17.027397260273972,17,Adolescents,5
low_switch,0,correct,0.6604,66,3,1,17.027397260273972,17,Adolescents,5
low_switch,0,correct,0.63,67,3,1,17.027397260273972,17,Adolescents,5
low_switch,1,correct,0.5655,68,3,1,17.027397260273972,17,Adolescents,5
low_switch,0,correct,0.7108,69,3,1,17.027397260273972,17,Adolescents,5
low_switch,0,correct,0.5914,70,3,1,17.027397260273972,17,Adolescents,5
low_switch,1,correct,0.6203,71,3,1,17.027397260273972,17,Adolescents,5
low_switch,0,correct,0.5683,72,3,1,17.027397260273972,17,Adolescents,5
low_switch,1,correct,0.5979,73,3,1,17.027397260273972,17,Adolescents,5
low_switch,0,correct,0.5769,74,3,1,17.027397260273972,17,Adolescents,5
low_switch,1,correct,0.7895,75,3,1,17.027397260273972,17,Adolescents,5
low_switch,0,correct,1.2119,76,3,1,17.027397260273972,17,Adolescents,5
low_switch,0,correct,0.6605,77,3,1,17.027397260273972,17,Adolescents,5
low_switch,0,correct,0.59,78,3,1,17.027397260273972,17,Adolescents,5
low_switch,0,correct,0.549,79,3,1,17.027397260273972,17,Adolescents,5
low_switch,0,correct,0.7133,80,3,1,17.027397260273972,17,Adolescents,5
low_switch,0,correct,0.7317,81,3,1,17.027397260273972,17,Adolescents,5
low_switch,0,correct,0.711,82,3,1,17.027397260273972,17,Adolescents,5
low_switch,0,correct,0.7108,83,3,1,17.027397260273972,17,Adolescents,5
low_switch,0,correct,0.6418,84,3,1,17.027397260273972,17,Adolescents,5
low_switch,0,correct,0.6019,85,3,1,17.027397260273972,17,Adolescents,5
low_switch,0,correct,0.5934,86,3,1,17.027397260273972,17,Adolescents,5
low_switch,0,correct,0.5256,87,3,1,17.027397260273972,17,Adolescents,5
low_switch,0,correct,0.6204,88,3,1,17.027397260273972,17,Adolescents,5
low_switch,0,correct,0.6337,89,3,1,17.027397260273972,17,Adolescents,5
low_switch,0,correct,0.6312,90,3,1,17.027397260273972,17,Adolescents,5
high_switch,0,correct,0.5434,91,4,1,17.027397260273972,17,Adolescents,5
high_switch,0,correct,0.5372,92,4,1,17.027397260273972,17,Adolescents,5
high_switch,1,correct,0.6728,93,4,1,17.027397260273972,17,Adolescents,5
high_switch,1,correct,0.8449,94,4,1,17.027397260273972,17,Adolescents,5
high_switch,1,correct,0.6995,95,4,1,17.027397260273972,17,Adolescents,5
high_switch,1,correct,0.7868,96,4,1,17.027397260273972,17,Adolescents,5
high_switch,0,correct,0.5614,97,4,1,17.027397260273972,17,Adolescents,5
high_switch,0,correct,0.6621,98,4,1,17.027397260273972,17,Adolescents,5
high_switch,1,correct,0.5839,99,4,1,17.027397260273972,17,Adolescents,5
high_switch,1,correct,0.5883,100,4,1,17.027397260273972,17,Adolescents,5
high_switch,0,correct,0.6233,101,4,1,17.027397260273972,17,Adolescents,5
high_switch,1,correct,0.5029,102,4,1,17.027397260273972,17,Adolescents,5
high_switch,1,correct,0.671,103,4,1,17.027397260273972,17,Adolescents,5
high_switch,1,correct,0.5855,104,4,1,17.027397260273972,17,Adolescents,5
high_switch,0,correct,0.4347,105,4,1,17.027397260273972,17,Adolescents,5
high_switch,0,correct,0.4198,106,4,1,17.027397260273972,17,Adolescents,5
high_switch,0,correct,0.5285,107,4,1,17.027397260273972,17,Adolescents,5
high_switch,0,correct,0.4843,108,4,1,17.027397260273972,17,Adolescents,5
high_switch,1,correct,0.7631,109,4,1,17.027397260273972,17,Adolescents,5
high_switch,0,correct,0.6491,110,4,1,17.027397260273972,17,Adolescents,5
high_switch,1,correct,0.6429,111,4,1,17.027397260273972,17,Adolescents,5
high_switch,0,correct,0.5303,112,4,1,17.027397260273972,17,Adolescents,5
high_switch,1,correct,0.8761,113,4,1,17.027397260273972,17,Adolescents,5
high_switch,0,correct,0.7035,114,4,1,17.027397260273972,17,Adolescents,5
high_switch,0,correct,0.686,115,4,1,17.027397260273972,17,Adolescents,5
high_switch,1,correct,0.5727,116,4,1,17.027397260273972,17,Adolescents,5
high_switch,1,correct,0.7267,117,4,1,17.027397260273972,17,Adolescents,5
high_switch,0,correct,0.7528,118,4,1,17.027397260273972,17,Adolescents,5
high_switch,1,correct,0.6739,119,4,1,17.027397260273972,17,Adolescents,5
high_switch,0,correct,0.6658,120,4,1,17.027397260273972,17,Adolescents,5
low_switch,0,too_slow,NA,1,1,NA,16.731506849315068,16,Adolescents,6
low_switch,1,correct,0.9246,2,1,1,16.731506849315068,16,Adolescents,6
low_switch,0,correct,0.465,3,1,1,16.731506849315068,16,Adolescents,6
low_switch,0,correct,0.4249,4,1,1,16.731506849315068,16,Adolescents,6
low_switch,0,correct,0.3282,5,1,1,16.731506849315068,16,Adolescents,6
low_switch,0,correct,0.3659,6,1,1,16.731506849315068,16,Adolescents,6
low_switch,0,correct,0.3923,7,1,1,16.731506849315068,16,Adolescents,6
low_switch,0,correct,0.3058,8,1,1,16.731506849315068,16,Adolescents,6
low_switch,0,correct,0.3125,9,1,1,16.731506849315068,16,Adolescents,6
low_switch,0,correct,0.3872,10,1,1,16.731506849315068,16,Adolescents,6
low_switch,1,correct,1.2372,11,1,1,16.731506849315068,16,Adolescents,6
low_switch,1,incorrect,0.4435,12,1,0,16.731506849315068,16,Adolescents,6
low_switch,0,correct,0.5889,13,1,1,16.731506849315068,16,Adolescents,6
low_switch,0,correct,0.7716,14,1,1,16.731506849315068,16,Adolescents,6
low_switch,0,correct,0.8595,15,1,1,16.731506849315068,16,Adolescents,6
low_switch,0,correct,0.5775,16,1,1,16.731506849315068,16,Adolescents,6
low_switch,0,correct,0.5412,17,1,1,16.731506849315068,16,Adolescents,6
low_switch,0,correct,0.5169,18,1,1,16.731506849315068,16,Adolescents,6
low_switch,0,correct,0.6362,19,1,1,16.731506849315068,16,Adolescents,6
low_switch,1,correct,1.2775,20,1,1,16.731506849315068,16,Adolescents,6
low_switch,0,correct,0.7376,21,1,1,16.731506849315068,16,Adolescents,6
low_switch,0,correct,1.1353,22,1,1,16.731506849315068,16,Adolescents,6
low_switch,0,correct,0.9775,23,1,1,16.731506849315068,16,Adolescents,6
low_switch,0,correct,1.1032,24,1,1,16.731506849315068,16,Adolescents,6
low_switch,1,correct,1.2,25,1,1,16.731506849315068,16,Adolescents,6
low_switch,0,correct,1.1268,26,1,1,16.731506849315068,16,Adolescents,6
low_switch,0,correct,0.6347,27,1,1,16.731506849315068,16,Adolescents,6
low_switch,0,correct,0.5953,28,1,1,16.731506849315068,16,Adolescents,6
low_switch,0,correct,0.7867,29,1,1,16.731506849315068,16,Adolescents,6
low_switch,1,correct,0.998,30,1,1,16.731506849315068,16,Adolescents,6
high_switch,0,correct,0.9189,31,2,1,16.731506849315068,16,Adolescents,6
high_switch,1,correct,0.7375,32,2,1,16.731506849315068,16,Adolescents,6
high_switch,1,correct,1.0496,33,2,1,16.731506849315068,16,Adolescents,6
high_switch,0,correct,1.2912,34,2,1,16.731506849315068,16,Adolescents,6
high_switch,0,incorrect,1.2737,35,2,0,16.731506849315068,16,Adolescents,6
high_switch,0,correct,0.9451,36,2,1,16.731506849315068,16,Adolescents,6
high_switch,0,correct,0.8612,37,2,1,16.731506849315068,16,Adolescents,6
high_switch,1,correct,0.7788,38,2,1,16.731506849315068,16,Adolescents,6
high_switch,0,correct,0.6531,39,2,1,16.731506849315068,16,Adolescents,6
high_switch,0,correct,0.5807,40,2,1,16.731506849315068,16,Adolescents,6
high_switch,1,correct,0.8242,41,2,1,16.731506849315068,16,Adolescents,6
high_switch,1,correct,0.6095,42,2,1,16.731506849315068,16,Adolescents,6
high_switch,1,correct,1.2994,43,2,1,16.731506849315068,16,Adolescents,6
high_switch,0,correct,0.9106,44,2,1,16.731506849315068,16,Adolescents,6
high_switch,1,correct,0.7094,45,2,1,16.731506849315068,16,Adolescents,6
high_switch,1,correct,1.6785,46,2,1,16.731506849315068,16,Adolescents,6
high_switch,0,correct,0.8348,47,2,1,16.731506849315068,16,Adolescents,6
high_switch,1,correct,1.063,48,2,1,16.731506849315068,16,Adolescents,6
high_switch,1,correct,0.9717,49,2,1,16.731506849315068,16,Adolescents,6
high_switch,1,correct,0.854,50,2,1,16.731506849315068,16,Adolescents,6
high_switch,0,correct,0.8158,51,2,1,16.731506849315068,16,Adolescents,6
high_switch,0,correct,0.6533,52,2,1,16.731506849315068,16,Adolescents,6
high_switch,0,correct,0.5068,53,2,1,16.731506849315068,16,Adolescents,6
high_switch,0,correct,0.6873,54,2,1,16.731506849315068,16,Adolescents,6
high_switch,1,correct,1.4541,55,2,1,16.731506849315068,16,Adolescents,6
high_switch,1,correct,0.8226,56,2,1,16.731506849315068,16,Adolescents,6
high_switch,1,correct,0.7945,57,2,1,16.731506849315068,16,Adolescents,6
high_switch,0,correct,0.6223,58,2,1,16.731506849315068,16,Adolescents,6
high_switch,0,correct,0.6033,59,2,1,16.731506849315068,16,Adolescents,6
high_switch,1,correct,0.8617,60,2,1,16.731506849315068,16,Adolescents,6
low_switch,0,correct,1.6486,61,3,1,16.731506849315068,16,Adolescents,6
low_switch,0,correct,0.8578,62,3,1,16.731506849315068,16,Adolescents,6
low_switch,1,correct,0.538,63,3,1,16.731506849315068,16,Adolescents,6
low_switch,1,correct,0.909,64,3,1,16.731506849315068,16,Adolescents,6
low_switch,0,correct,1.0749,65,3,1,16.731506849315068,16,Adolescents,6
low_switch,0,incorrect,0.3084,66,3,0,16.731506849315068,16,Adolescents,6
low_switch,0,correct,1.0721,67,3,1,16.731506849315068,16,Adolescents,6
low_switch,0,correct,0.6441,68,3,1,16.731506849315068,16,Adolescents,6
low_switch,0,correct,0.7837,69,3,1,16.731506849315068,16,Adolescents,6
low_switch,0,correct,0.5284,70,3,1,16.731506849315068,16,Adolescents,6
low_switch,0,correct,0.4861,71,3,1,16.731506849315068,16,Adolescents,6
low_switch,1,correct,0.5953,72,3,1,16.731506849315068,16,Adolescents,6
low_switch,0,correct,0.4392,73,3,1,16.731506849315068,16,Adolescents,6
low_switch,1,incorrect,0.6514,74,3,0,16.731506849315068,16,Adolescents,6
low_switch,0,correct,0.4121,75,3,1,16.731506849315068,16,Adolescents,6
low_switch,0,correct,0.9295,76,3,1,16.731506849315068,16,Adolescents,6
low_switch,0,correct,0.6845,77,3,1,16.731506849315068,16,Adolescents,6
low_switch,0,correct,0.9589,78,3,1,16.731506849315068,16,Adolescents,6
low_switch,0,correct,1.0959,79,3,1,16.731506849315068,16,Adolescents,6
low_switch,0,correct,1.2571,80,3,1,16.731506849315068,16,Adolescents,6
low_switch,1,correct,1.3657,81,3,1,16.731506849315068,16,Adolescents,6
low_switch,0,correct,0.6995,82,3,1,16.731506849315068,16,Adolescents,6
low_switch,0,correct,0.5555,83,3,1,16.731506849315068,16,Adolescents,6
low_switch,0,correct,0.5195,84,3,1,16.731506849315068,16,Adolescents,6
low_switch,0,correct,0.5624,85,3,1,16.731506849315068,16,Adolescents,6
low_switch,1,correct,0.4665,86,3,1,16.731506849315068,16,Adolescents,6
low_switch,0,correct,0.4804,87,3,1,16.731506849315068,16,Adolescents,6
low_switch,0,correct,0.6208,88,3,1,16.731506849315068,16,Adolescents,6
low_switch,0,incorrect,0.8218,89,3,0,16.731506849315068,16,Adolescents,6
low_switch,0,correct,0.8682,90,3,1,16.731506849315068,16,Adolescents,6
high_switch,0,correct,0.6115,91,4,1,16.731506849315068,16,Adolescents,6
high_switch,0,correct,0.8737,92,4,1,16.731506849315068,16,Adolescents,6
high_switch,0,correct,0.6887,93,4,1,16.731506849315068,16,Adolescents,6
high_switch,0,correct,0.9242,94,4,1,16.731506849315068,16,Adolescents,6
high_switch,0,correct,0.6988,95,4,1,16.731506849315068,16,Adolescents,6
high_switch,1,incorrect,0.9744,96,4,0,16.731506849315068,16,Adolescents,6
high_switch,1,correct,1.5675,97,4,1,16.731506849315068,16,Adolescents,6
high_switch,1,correct,0.611,98,4,1,16.731506849315068,16,Adolescents,6
high_switch,1,correct,0.797,99,4,1,16.731506849315068,16,Adolescents,6
high_switch,1,correct,0.6453,100,4,1,16.731506849315068,16,Adolescents,6
high_switch,1,correct,1.002,101,4,1,16.731506849315068,16,Adolescents,6
high_switch,0,correct,1.0342,102,4,1,16.731506849315068,16,Adolescents,6
high_switch,1,correct,0.6375,103,4,1,16.731506849315068,16,Adolescents,6
high_switch,0,correct,0.495,104,4,1,16.731506849315068,16,Adolescents,6
high_switch,0,correct,0.4939,105,4,1,16.731506849315068,16,Adolescents,6
high_switch,1,incorrect,0.9016,106,4,0,16.731506849315068,16,Adolescents,6
high_switch,0,correct,1.0395,107,4,1,16.731506849315068,16,Adolescents,6
high_switch,1,correct,1.3184,108,4,1,16.731506849315068,16,Adolescents,6
high_switch,1,correct,0.6949,109,4,1,16.731506849315068,16,Adolescents,6
high_switch,0,correct,1.3387,110,4,1,16.731506849315068,16,Adolescents,6
high_switch,0,correct,0.9289,111,4,1,16.731506849315068,16,Adolescents,6
high_switch,0,correct,0.6772,112,4,1,16.731506849315068,16,Adolescents,6
high_switch,0,correct,0.6908,113,4,1,16.731506849315068,16,Adolescents,6
high_switch,1,correct,0.6042,114,4,1,16.731506849315068,16,Adolescents,6
high_switch,0,correct,0.5747,115,4,1,16.731506849315068,16,Adolescents,6
high_switch,1,correct,0.7416,116,4,1,16.731506849315068,16,Adolescents,6
high_switch,1,correct,0.9724,117,4,1,16.731506849315068,16,Adolescents,6
high_switch,1,correct,1.3054,118,4,1,16.731506849315068,16,Adolescents,6
high_switch,1,correct,0.7074,119,4,1,16.731506849315068,16,Adolescents,6
high_switch,0,correct,0.5561,120,4,1,16.731506849315068,16,Adolescents,6
low_switch,0,incorrect,1.6344,1,1,0,13.61917808219178,13,Adolescents,7
low_switch,1,correct,1.4262,2,1,1,13.61917808219178,13,Adolescents,7
low_switch,0,correct,0.9211,3,1,1,13.61917808219178,13,Adolescents,7
low_switch,0,correct,0.7587,4,1,1,13.61917808219178,13,Adolescents,7
low_switch,0,correct,0.788,5,1,1,13.61917808219178,13,Adolescents,7
low_switch,0,correct,0.6729,6,1,1,13.61917808219178,13,Adolescents,7
low_switch,0,correct,0.5233,7,1,1,13.61917808219178,13,Adolescents,7
low_switch,1,correct,1.4577,8,1,1,13.61917808219178,13,Adolescents,7
low_switch,0,too_slow,NA,9,1,NA,13.61917808219178,13,Adolescents,7
low_switch,0,correct,0.8554,10,1,1,13.61917808219178,13,Adolescents,7
low_switch,0,correct,1.5539,11,1,1,13.61917808219178,13,Adolescents,7
low_switch,0,correct,1.1838,12,1,1,13.61917808219178,13,Adolescents,7
low_switch,1,correct,0.9599,13,1,1,13.61917808219178,13,Adolescents,7
low_switch,0,correct,0.81,14,1,1,13.61917808219178,13,Adolescents,7
low_switch,0,correct,0.6943,15,1,1,13.61917808219178,13,Adolescents,7
low_switch,0,correct,0.5873,16,1,1,13.61917808219178,13,Adolescents,7
low_switch,0,correct,0.5602,17,1,1,13.61917808219178,13,Adolescents,7
low_switch,0,correct,0.6272,18,1,1,13.61917808219178,13,Adolescents,7
low_switch,1,correct,1.1087,19,1,1,13.61917808219178,13,Adolescents,7
low_switch,0,correct,1.0234,20,1,1,13.61917808219178,13,Adolescents,7
low_switch,0,correct,0.958,21,1,1,13.61917808219178,13,Adolescents,7
low_switch,0,correct,1.0841,22,1,1,13.61917808219178,13,Adolescents,7
low_switch,0,correct,0.9756,23,1,1,13.61917808219178,13,Adolescents,7
low_switch,1,correct,1.444,24,1,1,13.61917808219178,13,Adolescents,7
low_switch,0,correct,0.7239,25,1,1,13.61917808219178,13,Adolescents,7
low_switch,0,correct,0.6618,26,1,1,13.61917808219178,13,Adolescents,7
low_switch,0,correct,0.8634,27,1,1,13.61917808219178,13,Adolescents,7
low_switch,0,correct,0.7264,28,1,1,13.61917808219178,13,Adolescents,7
low_switch,1,correct,1.0556,29,1,1,13.61917808219178,13,Adolescents,7
low_switch,0,correct,1.2768,30,1,1,13.61917808219178,13,Adolescents,7
high_switch,0,correct,1.0679,31,2,1,13.61917808219178,13,Adolescents,7
high_switch,0,incorrect,1.1654,32,2,0,13.61917808219178,13,Adolescents,7
high_switch,0,correct,1.1235,33,2,1,13.61917808219178,13,Adolescents,7
high_switch,1,incorrect,1.259,34,2,0,13.61917808219178,13,Adolescents,7
high_switch,1,too_slow,NA,35,2,NA,13.61917808219178,13,Adolescents,7
high_switch,1,correct,1.1467,36,2,1,13.61917808219178,13,Adolescents,7
high_switch,0,correct,0.7907,37,2,1,13.61917808219178,13,Adolescents,7
high_switch,0,correct,0.7518,38,2,1,13.61917808219178,13,Adolescents,7
high_switch,0,correct,0.7349,39,2,1,13.61917808219178,13,Adolescents,7
high_switch,1,correct,1.0764,40,2,1,13.61917808219178,13,Adolescents,7
high_switch,0,correct,1.1151,41,2,1,13.61917808219178,13,Adolescents,7
high_switch,0,correct,0.8009,42,2,1,13.61917808219178,13,Adolescents,7
high_switch,0,correct,1.2775,43,2,1,13.61917808219178,13,Adolescents,7
high_switch,1,correct,0.7205,44,2,1,13.61917808219178,13,Adolescents,7
high_switch,1,correct,0.757,45,2,1,13.61917808219178,13,Adolescents,7
high_switch,1,correct,0.9291,46,2,1,13.61917808219178,13,Adolescents,7
high_switch,0,correct,1.0223,47,2,1,13.61917808219178,13,Adolescents,7
high_switch,1,correct,0.7569,48,2,1,13.61917808219178,13,Adolescents,7
high_switch,1,correct,0.8921,49,2,1,13.61917808219178,13,Adolescents,7
high_switch,0,correct,0.6072,50,2,1,13.61917808219178,13,Adolescents,7
high_switch,0,correct,0.5561,51,2,1,13.61917808219178,13,Adolescents,7
high_switch,1,correct,1.6614,52,2,1,13.61917808219178,13,Adolescents,7
high_switch,1,correct,0.7097,53,2,1,13.61917808219178,13,Adolescents,7
high_switch,0,correct,0.5858,54,2,1,13.61917808219178,13,Adolescents,7
high_switch,1,correct,0.991,55,2,1,13.61917808219178,13,Adolescents,7
high_switch,1,correct,0.9446,56,2,1,13.61917808219178,13,Adolescents,7
high_switch,1,correct,0.6798,57,2,1,13.61917808219178,13,Adolescents,7
high_switch,0,correct,0.857,58,2,1,13.61917808219178,13,Adolescents,7
high_switch,1,correct,0.6743,59,2,1,13.61917808219178,13,Adolescents,7
high_switch,0,correct,0.625,60,2,1,13.61917808219178,13,Adolescents,7
low_switch,0,correct,1.1579,61,3,1,13.61917808219178,13,Adolescents,7
low_switch,0,correct,0.6182,62,3,1,13.61917808219178,13,Adolescents,7
low_switch,0,correct,0.5581,63,3,1,13.61917808219178,13,Adolescents,7
low_switch,0,correct,0.6381,64,3,1,13.61917808219178,13,Adolescents,7
low_switch,0,correct,0.7416,65,3,1,13.61917808219178,13,Adolescents,7
low_switch,0,correct,0.4574,66,3,1,13.61917808219178,13,Adolescents,7
low_switch,0,correct,0.4743,67,3,1,13.61917808219178,13,Adolescents,7
low_switch,0,correct,0.9231,68,3,1,13.61917808219178,13,Adolescents,7
low_switch,0,correct,0.7566,69,3,1,13.61917808219178,13,Adolescents,7
low_switch,1,correct,1.1767,70,3,1,13.61917808219178,13,Adolescents,7
low_switch,0,correct,0.7932,71,3,1,13.61917808219178,13,Adolescents,7
low_switch,0,correct,0.8465,72,3,1,13.61917808219178,13,Adolescents,7
low_switch,1,correct,0.7434,73,3,1,13.61917808219178,13,Adolescents,7
low_switch,1,correct,0.763,74,3,1,13.61917808219178,13,Adolescents,7
low_switch,1,correct,0.9918,75,3,1,13.61917808219178,13,Adolescents,7
low_switch,0,correct,0.6577,76,3,1,13.61917808219178,13,Adolescents,7
low_switch,1,correct,0.8791,77,3,1,13.61917808219178,13,Adolescents,7
low_switch,0,correct,0.9084,78,3,1,13.61917808219178,13,Adolescents,7
low_switch,1,correct,1.0266,79,3,1,13.61917808219178,13,Adolescents,7
low_switch,0,incorrect,0.6552,80,3,0,13.61917808219178,13,Adolescents,7
low_switch,0,correct,0.7186,81,3,1,13.61917808219178,13,Adolescents,7
low_switch,0,incorrect,0.6072,82,3,0,13.61917808219178,13,Adolescents,7
low_switch,0,correct,0.7149,83,3,1,13.61917808219178,13,Adolescents,7
low_switch,0,correct,0.7079,84,3,1,13.61917808219178,13,Adolescents,7
low_switch,0,correct,0.8485,85,3,1,13.61917808219178,13,Adolescents,7
low_switch,0,correct,0.625,86,3,1,13.61917808219178,13,Adolescents,7
low_switch,0,correct,0.4587,87,3,1,13.61917808219178,13,Adolescents,7
low_switch,0,correct,0.5842,88,3,1,13.61917808219178,13,Adolescents,7
low_switch,0,correct,0.6327,89,3,1,13.61917808219178,13,Adolescents,7
low_switch,0,correct,0.8071,90,3,1,13.61917808219178,13,Adolescents,7
high_switch,0,correct,0.7075,91,4,1,13.61917808219178,13,Adolescents,7
high_switch,0,correct,0.6495,92,4,1,13.61917808219178,13,Adolescents,7
high_switch,0,correct,0.8,93,4,1,13.61917808219178,13,Adolescents,7
high_switch,1,correct,0.81,94,4,1,13.61917808219178,13,Adolescents,7
high_switch,1,incorrect,0.8283,95,4,0,13.61917808219178,13,Adolescents,7
high_switch,1,correct,0.6304,96,4,1,13.61917808219178,13,Adolescents,7
high_switch,0,correct,0.7217,97,4,1,13.61917808219178,13,Adolescents,7
high_switch,0,correct,0.5922,98,4,1,13.61917808219178,13,Adolescents,7
high_switch,0,correct,1.7916,99,4,1,13.61917808219178,13,Adolescents,7
high_switch,1,correct,0.7906,100,4,1,13.61917808219178,13,Adolescents,7
high_switch,1,correct,0.6594,101,4,1,13.61917808219178,13,Adolescents,7
high_switch,0,correct,0.5769,102,4,1,13.61917808219178,13,Adolescents,7
high_switch,0,correct,0.7178,103,4,1,13.61917808219178,13,Adolescents,7
high_switch,0,correct,0.5347,104,4,1,13.61917808219178,13,Adolescents,7
high_switch,0,correct,0.5166,105,4,1,13.61917808219178,13,Adolescents,7
high_switch,0,correct,0.6606,106,4,1,13.61917808219178,13,Adolescents,7
high_switch,1,incorrect,0.7305,107,4,0,13.61917808219178,13,Adolescents,7
high_switch,1,correct,1.1319,108,4,1,13.61917808219178,13,Adolescents,7
high_switch,1,correct,1.3093,109,4,1,13.61917808219178,13,Adolescents,7
high_switch,0,correct,0.8908,110,4,1,13.61917808219178,13,Adolescents,7
high_switch,1,correct,0.6255,111,4,1,13.61917808219178,13,Adolescents,7
high_switch,1,correct,0.7073,112,4,1,13.61917808219178,13,Adolescents,7
high_switch,1,correct,0.9079,113,4,1,13.61917808219178,13,Adolescents,7
high_switch,0,correct,0.5771,114,4,1,13.61917808219178,13,Adolescents,7
high_switch,1,correct,0.6919,115,4,1,13.61917808219178,13,Adolescents,7
high_switch,0,correct,0.6731,116,4,1,13.61917808219178,13,Adolescents,7
high_switch,1,correct,0.6412,117,4,1,13.61917808219178,13,Adolescents,7
high_switch,0,correct,0.7052,118,4,1,13.61917808219178,13,Adolescents,7
high_switch,1,incorrect,0.6244,119,4,0,13.61917808219178,13,Adolescents,7
high_switch,1,correct,0.7426,120,4,1,13.61917808219178,13,Adolescents,7
low_switch,0,correct,1.7746,1,1,1,10.75890410958904,10,Children,8
low_switch,0,correct,0.9761,2,1,1,10.75890410958904,10,Children,8
low_switch,0,correct,1.0614,3,1,1,10.75890410958904,10,Children,8
low_switch,1,correct,2.4024,4,1,1,10.75890410958904,10,Children,8
low_switch,1,correct,1.8336,5,1,1,10.75890410958904,10,Children,8
low_switch,1,correct,1.3995,6,1,1,10.75890410958904,10,Children,8
low_switch,0,correct,1.2518,7,1,1,10.75890410958904,10,Children,8
low_switch,0,correct,1.1454,8,1,1,10.75890410958904,10,Children,8
low_switch,0,correct,0.8198,9,1,1,10.75890410958904,10,Children,8
low_switch,0,correct,1.875,10,1,1,10.75890410958904,10,Children,8
low_switch,0,correct,1.2498,11,1,1,10.75890410958904,10,Children,8
low_switch,0,correct,0.9679,12,1,1,10.75890410958904,10,Children,8
low_switch,0,correct,1.3397,13,1,1,10.75890410958904,10,Children,8
low_switch,0,correct,0.8257,14,1,1,10.75890410958904,10,Children,8
low_switch,1,correct,1.4639,15,1,1,10.75890410958904,10,Children,8
low_switch,0,correct,1.0249,16,1,1,10.75890410958904,10,Children,8
low_switch,0,correct,0.9439,17,1,1,10.75890410958904,10,Children,8
low_switch,0,correct,1.3501,18,1,1,10.75890410958904,10,Children,8
low_switch,0,correct,1.0895,19,1,1,10.75890410958904,10,Children,8
low_switch,0,correct,0.6935,20,1,1,10.75890410958904,10,Children,8
low_switch,0,correct,1.6023,21,1,1,10.75890410958904,10,Children,8
low_switch,0,correct,1.1487,22,1,1,10.75890410958904,10,Children,8
low_switch,0,correct,1.2688,23,1,1,10.75890410958904,10,Children,8
low_switch,0,correct,0.9956,24,1,1,10.75890410958904,10,Children,8
low_switch,0,correct,0.7903,25,1,1,10.75890410958904,10,Children,8
low_switch,1,correct,1.9762,26,1,1,10.75890410958904,10,Children,8
low_switch,0,correct,0.8937,27,1,1,10.75890410958904,10,Children,8
low_switch,0,correct,0.8499,28,1,1,10.75890410958904,10,Children,8
low_switch,0,correct,0.6833,29,1,1,10.75890410958904,10,Children,8
low_switch,1,correct,1.9617,30,1,1,10.75890410958904,10,Children,8
high_switch,0,correct,1.1992,31,2,1,10.75890410958904,10,Children,8
high_switch,0,correct,1.1682,32,2,1,10.75890410958904,10,Children,8
high_switch,1,correct,1.2281,33,2,1,10.75890410958904,10,Children,8
high_switch,1,too_slow,NA,34,2,NA,10.75890410958904,10,Children,8
high_switch,0,correct,2.3978,35,2,1,10.75890410958904,10,Children,8
high_switch,1,correct,0.8119,36,2,1,10.75890410958904,10,Children,8
high_switch,1,correct,1.2218,37,2,1,10.75890410958904,10,Children,8
high_switch,0,correct,2.0172,38,2,1,10.75890410958904,10,Children,8
high_switch,0,correct,1.2003,39,2,1,10.75890410958904,10,Children,8
high_switch,1,correct,1.6722,40,2,1,10.75890410958904,10,Children,8
high_switch,1,correct,2.1564,41,2,1,10.75890410958904,10,Children,8
high_switch,1,correct,1.6431,42,2,1,10.75890410958904,10,Children,8
high_switch,0,correct,1.0449,43,2,1,10.75890410958904,10,Children,8
high_switch,0,correct,0.755,44,2,1,10.75890410958904,10,Children,8
high_switch,1,correct,1.0193,45,2,1,10.75890410958904,10,Children,8
high_switch,0,correct,0.8439,46,2,1,10.75890410958904,10,Children,8
high_switch,1,correct,0.9002,47,2,1,10.75890410958904,10,Children,8
high_switch,1,correct,1.326,48,2,1,10.75890410958904,10,Children,8
high_switch,1,correct,1.6535,49,2,1,10.75890410958904,10,Children,8
high_switch,0,correct,1.1095,50,2,1,10.75890410958904,10,Children,8
high_switch,0,correct,0.9165,51,2,1,10.75890410958904,10,Children,8
high_switch,0,correct,1.1551,52,2,1,10.75890410958904,10,Children,8
high_switch,1,correct,1.1331,53,2,1,10.75890410958904,10,Children,8
high_switch,1,correct,1.3384,54,2,1,10.75890410958904,10,Children,8
high_switch,1,correct,1.035,55,2,1,10.75890410958904,10,Children,8
high_switch,1,correct,1.8815,56,2,1,10.75890410958904,10,Children,8
high_switch,0,correct,0.7832,57,2,1,10.75890410958904,10,Children,8
high_switch,0,correct,0.6026,58,2,1,10.75890410958904,10,Children,8
high_switch,0,correct,0.9327,59,2,1,10.75890410958904,10,Children,8
high_switch,0,correct,0.8755,60,2,1,10.75890410958904,10,Children,8
low_switch,0,correct,1.0788,61,3,1,10.75890410958904,10,Children,8
low_switch,1,correct,0.8907,62,3,1,10.75890410958904,10,Children,8
low_switch,0,correct,0.9014,63,3,1,10.75890410958904,10,Children,8
low_switch,0,correct,1.0337,64,3,1,10.75890410958904,10,Children,8
low_switch,0,correct,0.5788,65,3,1,10.75890410958904,10,Children,8
low_switch,1,correct,2.0755,66,3,1,10.75890410958904,10,Children,8
low_switch,0,correct,0.9016,67,3,1,10.75890410958904,10,Children,8
low_switch,0,correct,1.9339,68,3,1,10.75890410958904,10,Children,8
low_switch,1,correct,1.0112,69,3,1,10.75890410958904,10,Children,8
low_switch,0,too_slow,NA,70,3,NA,10.75890410958904,10,Children,8
low_switch,0,correct,2.026,71,3,1,10.75890410958904,10,Children,8
low_switch,0,correct,1.26,72,3,1,10.75890410958904,10,Children,8
low_switch,0,too_slow,NA,73,3,NA,10.75890410958904,10,Children,8
low_switch,0,correct,0.5864,74,3,1,10.75890410958904,10,Children,8
low_switch,0,correct,1.0008,75,3,1,10.75890410958904,10,Children,8
low_switch,0,correct,0.5262,76,3,1,10.75890410958904,10,Children,8
low_switch,0,correct,0.4535,77,3,1,10.75890410958904,10,Children,8
low_switch,0,correct,1.0005,78,3,1,10.75890410958904,10,Children,8
low_switch,0,correct,0.7354,79,3,1,10.75890410958904,10,Children,8
low_switch,0,correct,0.7796,80,3,1,10.75890410958904,10,Children,8
low_switch,1,correct,0.9512,81,3,1,10.75890410958904,10,Children,8
low_switch,0,correct,1.0056,82,3,1,10.75890410958904,10,Children,8
low_switch,0,correct,0.2718,83,3,1,10.75890410958904,10,Children,8
low_switch,0,correct,0.9338,84,3,1,10.75890410958904,10,Children,8
low_switch,1,correct,0.8338,85,3,1,10.75890410958904,10,Children,8
low_switch,1,correct,0.8065,86,3,1,10.75890410958904,10,Children,8
low_switch,0,correct,0.7595,87,3,1,10.75890410958904,10,Children,8
low_switch,0,correct,0.7106,88,3,1,10.75890410958904,10,Children,8
low_switch,0,correct,1.8,89,3,1,10.75890410958904,10,Children,8
low_switch,0,correct,0.9777,90,3,1,10.75890410958904,10,Children,8
high_switch,0,correct,1.5659,91,4,1,10.75890410958904,10,Children,8
high_switch,1,correct,1.834,92,4,1,10.75890410958904,10,Children,8
high_switch,1,correct,1.05,93,4,1,10.75890410958904,10,Children,8
high_switch,0,correct,0.5955,94,4,1,10.75890410958904,10,Children,8
high_switch,0,correct,0.9172,95,4,1,10.75890410958904,10,Children,8
high_switch,1,correct,1.1337,96,4,1,10.75890410958904,10,Children,8
high_switch,0,correct,0.6109,97,4,1,10.75890410958904,10,Children,8
high_switch,1,correct,0.9507,98,4,1,10.75890410958904,10,Children,8
high_switch,1,correct,0.6442,99,4,1,10.75890410958904,10,Children,8
high_switch,1,correct,0.8029,100,4,1,10.75890410958904,10,Children,8
high_switch,0,correct,0.9092,101,4,1,10.75890410958904,10,Children,8
high_switch,0,correct,0.7458,102,4,1,10.75890410958904,10,Children,8
high_switch,0,correct,1.001,103,4,1,10.75890410958904,10,Children,8
high_switch,0,incorrect,1.0537,104,4,0,10.75890410958904,10,Children,8
high_switch,1,correct,1.0029,105,4,1,10.75890410958904,10,Children,8
high_switch,0,correct,0.7452,106,4,1,10.75890410958904,10,Children,8
high_switch,0,correct,0.7859,107,4,1,10.75890410958904,10,Children,8
high_switch,1,correct,1.4005,108,4,1,10.75890410958904,10,Children,8
high_switch,0,correct,1.3006,109,4,1,10.75890410958904,10,Children,8
high_switch,0,correct,1.1161,110,4,1,10.75890410958904,10,Children,8
high_switch,1,correct,0.7519,111,4,1,10.75890410958904,10,Children,8
high_switch,1,correct,2.4041,112,4,1,10.75890410958904,10,Children,8
high_switch,1,too_slow,NA,113,4,NA,10.75890410958904,10,Children,8
high_switch,0,correct,1.1724,114,4,1,10.75890410958904,10,Children,8
high_switch,0,correct,1.0998000000000001,115,4,1,10.75890410958904,10,Children,8
high_switch,1,too_slow,NA,116,4,NA,10.75890410958904,10,Children,8
high_switch,0,correct,0.8214,117,4,1,10.75890410958904,10,Children,8
high_switch,1,correct,0.7343,118,4,1,10.75890410958904,10,Children,8
high_switch,1,correct,0.9825,119,4,1,10.75890410958904,10,Children,8
high_switch,1,correct,0.8387,120,4,1,10.75890410958904,10,Children,8
low_switch,0,correct,1.1633,1,1,1,18.232876712328768,18,Adults,9
low_switch,0,correct,0.819,2,1,1,18.232876712328768,18,Adults,9
low_switch,0,correct,1.1515,3,1,1,18.232876712328768,18,Adults,9
low_switch,1,too_slow,NA,4,1,NA,18.232876712328768,18,Adults,9
low_switch,0,correct,1.3006,5,1,1,18.232876712328768,18,Adults,9
low_switch,1,correct,1.1884,6,1,1,18.232876712328768,18,Adults,9
low_switch,0,too_slow,NA,7,1,NA,18.232876712328768,18,Adults,9
low_switch,1,correct,0.9123,8,1,1,18.232876712328768,18,Adults,9
low_switch,0,correct,1.1139,9,1,1,18.232876712328768,18,Adults,9
low_switch,0,correct,0.8218,10,1,1,18.232876712328768,18,Adults,9
low_switch,0,correct,1.1009,11,1,1,18.232876712328768,18,Adults,9
low_switch,1,correct,1.3056,12,1,1,18.232876712328768,18,Adults,9
low_switch,0,correct,0.996,13,1,1,18.232876712328768,18,Adults,9
low_switch,0,correct,0.6794,14,1,1,18.232876712328768,18,Adults,9
low_switch,0,correct,0.8069,15,1,1,18.232876712328768,18,Adults,9
low_switch,1,correct,0.7451,16,1,1,18.232876712328768,18,Adults,9
low_switch,0,correct,0.7726,17,1,1,18.232876712328768,18,Adults,9
low_switch,0,correct,0.6341,18,1,1,18.232876712328768,18,Adults,9
low_switch,0,correct,0.6182,19,1,1,18.232876712328768,18,Adults,9
low_switch,0,correct,0.6146,20,1,1,18.232876712328768,18,Adults,9
low_switch,0,correct,0.5972,21,1,1,18.232876712328768,18,Adults,9
low_switch,0,correct,0.6004,22,1,1,18.232876712328768,18,Adults,9
low_switch,0,correct,0.774,23,1,1,18.232876712328768,18,Adults,9
low_switch,0,correct,0.6682,24,1,1,18.232876712328768,18,Adults,9
low_switch,0,correct,0.6006,25,1,1,18.232876712328768,18,Adults,9
low_switch,1,correct,0.9866,26,1,1,18.232876712328768,18,Adults,9
low_switch,0,incorrect,0.7587,27,1,0,18.232876712328768,18,Adults,9
low_switch,0,correct,1.4751,28,1,1,18.232876712328768,18,Adults,9
low_switch,0,correct,0.6316,29,1,1,18.232876712328768,18,Adults,9
low_switch,0,correct,0.6068,30,1,1,18.232876712328768,18,Adults,9
high_switch,0,incorrect,0.789,31,2,0,18.232876712328768,18,Adults,9
high_switch,0,correct,1.2543,32,2,1,18.232876712328768,18,Adults,9
high_switch,0,correct,0.5765,33,2,1,18.232876712328768,18,Adults,9
high_switch,1,correct,0.6393,34,2,1,18.232876712328768,18,Adults,9
high_switch,1,correct,1.2527,35,2,1,18.232876712328768,18,Adults,9
high_switch,1,correct,0.6337,36,2,1,18.232876712328768,18,Adults,9
high_switch,0,correct,0.6072,37,2,1,18.232876712328768,18,Adults,9
high_switch,1,correct,0.9295,38,2,1,18.232876712328768,18,Adults,9
high_switch,1,correct,0.9541,39,2,1,18.232876712328768,18,Adults,9
high_switch,0,correct,0.595,40,2,1,18.232876712328768,18,Adults,9
high_switch,0,correct,0.7758,41,2,1,18.232876712328768,18,Adults,9
high_switch,1,correct,1.4368,42,2,1,18.232876712328768,18,Adults,9
high_switch,0,correct,1.1032,43,2,1,18.232876712328768,18,Adults,9
high_switch,0,correct,0.9369,44,2,1,18.232876712328768,18,Adults,9
high_switch,1,correct,0.9174,45,2,1,18.232876712328768,18,Adults,9
high_switch,1,incorrect,0.7651,46,2,0,18.232876712328768,18,Adults,9
high_switch,0,correct,1.1302,47,2,1,18.232876712328768,18,Adults,9
high_switch,1,correct,0.8109,48,2,1,18.232876712328768,18,Adults,9
high_switch,0,correct,0.7806,49,2,1,18.232876712328768,18,Adults,9
high_switch,1,correct,0.9255,50,2,1,18.232876712328768,18,Adults,9
high_switch,1,correct,0.7829,51,2,1,18.232876712328768,18,Adults,9
high_switch,0,correct,0.6113,52,2,1,18.232876712328768,18,Adults,9
high_switch,0,correct,0.7945,53,2,1,18.232876712328768,18,Adults,9
high_switch,1,correct,1.1085,54,2,1,18.232876712328768,18,Adults,9
high_switch,0,correct,1.0994,55,2,1,18.232876712328768,18,Adults,9
high_switch,1,correct,0.9546,56,2,1,18.232876712328768,18,Adults,9
high_switch,1,correct,0.8954,57,2,1,18.232876712328768,18,Adults,9
high_switch,0,correct,0.599,58,2,1,18.232876712328768,18,Adults,9
high_switch,0,correct,0.7367,59,2,1,18.232876712328768,18,Adults,9
high_switch,1,correct,0.7763,60,2,1,18.232876712328768,18,Adults,9
low_switch,0,correct,1.5309,61,3,1,18.232876712328768,18,Adults,9
low_switch,0,too_slow,NA,62,3,NA,18.232876712328768,18,Adults,9
low_switch,1,correct,1.1203,63,3,1,18.232876712328768,18,Adults,9
low_switch,0,correct,0.852,64,3,1,18.232876712328768,18,Adults,9
low_switch,0,correct,1.1535,65,3,1,18.232876712328768,18,Adults,9
low_switch,0,correct,1.1585,66,3,1,18.232876712328768,18,Adults,9
low_switch,1,correct,1.5911,67,3,1,18.232876712328768,18,Adults,9
low_switch,1,correct,0.8023,68,3,1,18.232876712328768,18,Adults,9
low_switch,0,correct,0.6235,69,3,1,18.232876712328768,18,Adults,9
low_switch,0,correct,0.675,70,3,1,18.232876712328768,18,Adults,9
low_switch,0,correct,0.7821,71,3,1,18.232876712328768,18,Adults,9
low_switch,0,correct,0.6207,72,3,1,18.232876712328768,18,Adults,9
low_switch,0,correct,0.8124,73,3,1,18.232876712328768,18,Adults,9
low_switch,0,correct,0.6599,74,3,1,18.232876712328768,18,Adults,9
low_switch,0,correct,0.6186,75,3,1,18.232876712328768,18,Adults,9
low_switch,1,correct,0.8203,76,3,1,18.232876712328768,18,Adults,9
low_switch,1,correct,0.7491,77,3,1,18.232876712328768,18,Adults,9
low_switch,0,correct,0.5862,78,3,1,18.232876712328768,18,Adults,9
low_switch,0,correct,0.6408,79,3,1,18.232876712328768,18,Adults,9
low_switch,0,correct,0.731,80,3,1,18.232876712328768,18,Adults,9
low_switch,0,correct,0.5847,81,3,1,18.232876712328768,18,Adults,9
low_switch,0,correct,0.6289,82,3,1,18.232876712328768,18,Adults,9
low_switch,1,correct,1.1412,83,3,1,18.232876712328768,18,Adults,9
low_switch,0,correct,0.7794,84,3,1,18.232876712328768,18,Adults,9
low_switch,0,correct,0.7698,85,3,1,18.232876712328768,18,Adults,9
low_switch,0,correct,0.912,86,3,1,18.232876712328768,18,Adults,9
low_switch,0,correct,0.6331,87,3,1,18.232876712328768,18,Adults,9
low_switch,0,correct,0.5603,88,3,1,18.232876712328768,18,Adults,9
low_switch,0,correct,0.6091,89,3,1,18.232876712328768,18,Adults,9
low_switch,0,correct,0.7453,90,3,1,18.232876712328768,18,Adults,9
high_switch,0,correct,0.8711,91,4,1,18.232876712328768,18,Adults,9
high_switch,0,correct,0.6451,92,4,1,18.232876712328768,18,Adults,9
high_switch,1,correct,0.7429,93,4,1,18.232876712328768,18,Adults,9
high_switch,1,correct,0.6107,94,4,1,18.232876712328768,18,Adults,9
high_switch,1,correct,0.7792,95,4,1,18.232876712328768,18,Adults,9
high_switch,1,correct,0.746,96,4,1,18.232876712328768,18,Adults,9
high_switch,0,correct,0.598,97,4,1,18.232876712328768,18,Adults,9
high_switch,0,correct,0.6366,98,4,1,18.232876712328768,18,Adults,9
high_switch,0,correct,0.6356,99,4,1,18.232876712328768,18,Adults,9
high_switch,0,correct,0.6268,100,4,1,18.232876712328768,18,Adults,9
high_switch,0,correct,0.7364,101,4,1,18.232876712328768,18,Adults,9
high_switch,1,incorrect,0.7842,102,4,0,18.232876712328768,18,Adults,9
high_switch,0,correct,0.6733,103,4,1,18.232876712328768,18,Adults,9
high_switch,1,correct,1.0763,104,4,1,18.232876712328768,18,Adults,9
high_switch,1,correct,0.6507,105,4,1,18.232876712328768,18,Adults,9
high_switch,0,correct,0.6589,106,4,1,18.232876712328768,18,Adults,9
high_switch,0,correct,0.6195,107,4,1,18.232876712328768,18,Adults,9
high_switch,1,correct,0.9199,108,4,1,18.232876712328768,18,Adults,9
high_switch,0,correct,0.7476,109,4,1,18.232876712328768,18,Adults,9
high_switch,0,correct,0.6159,110,4,1,18.232876712328768,18,Adults,9
high_switch,1,correct,0.6583,111,4,1,18.232876712328768,18,Adults,9
high_switch,1,correct,0.782,112,4,1,18.232876712328768,18,Adults,9
high_switch,0,correct,0.792,113,4,1,18.232876712328768,18,Adults,9
high_switch,1,correct,0.8027,114,4,1,18.232876712328768,18,Adults,9
high_switch,0,correct,0.6267,115,4,1,18.232876712328768,18,Adults,9
high_switch,1,correct,0.8326,116,4,1,18.232876712328768,18,Adults,9
high_switch,1,correct,0.8282,117,4,1,18.232876712328768,18,Adults,9
high_switch,0,correct,0.6211,118,4,1,18.232876712328768,18,Adults,9
high_switch,1,incorrect,0.6551,119,4,0,18.232876712328768,18,Adults,9
high_switch,1,correct,1.139,120,4,1,18.232876712328768,18,Adults,9
low_switch,0,too_slow,NA,1,1,NA,19.46849315068493,19,Adults,10
low_switch,0,correct,1.3291,2,1,1,19.46849315068493,19,Adults,10
low_switch,0,correct,0.9652,3,1,1,19.46849315068493,19,Adults,10
low_switch,1,correct,0.9434,4,1,1,19.46849315068493,19,Adults,10
low_switch,0,correct,1.6761,5,1,1,19.46849315068493,19,Adults,10
low_switch,1,correct,1.9144,6,1,1,19.46849315068493,19,Adults,10
low_switch,0,correct,1.0918,7,1,1,19.46849315068493,19,Adults,10
low_switch,1,incorrect,1.4078,8,1,0,19.46849315068493,19,Adults,10
low_switch,0,correct,0.9363,9,1,1,19.46849315068493,19,Adults,10
low_switch,0,correct,1.3281,10,1,1,19.46849315068493,19,Adults,10
low_switch,0,correct,0.6928,11,1,1,19.46849315068493,19,Adults,10
low_switch,1,correct,1.3572,12,1,1,19.46849315068493,19,Adults,10
low_switch,0,correct,0.9506,13,1,1,19.46849315068493,19,Adults,10
low_switch,0,correct,1.4076,14,1,1,19.46849315068493,19,Adults,10
low_switch,0,correct,0.9022,15,1,1,19.46849315068493,19,Adults,10
low_switch,0,correct,0.846,16,1,1,19.46849315068493,19,Adults,10
low_switch,0,correct,0.7977,17,1,1,19.46849315068493,19,Adults,10
low_switch,0,correct,0.8123,18,1,1,19.46849315068493,19,Adults,10
low_switch,0,correct,0.9586,19,1,1,19.46849315068493,19,Adults,10
low_switch,0,correct,0.8348,20,1,1,19.46849315068493,19,Adults,10
low_switch,0,correct,0.7006,21,1,1,19.46849315068493,19,Adults,10
low_switch,0,correct,0.9197,22,1,1,19.46849315068493,19,Adults,10
low_switch,0,correct,1.4687,23,1,1,19.46849315068493,19,Adults,10
low_switch,0,correct,1.0943,24,1,1,19.46849315068493,19,Adults,10
low_switch,0,correct,0.7936,25,1,1,19.46849315068493,19,Adults,10
low_switch,1,incorrect,0.7114,26,1,0,19.46849315068493,19,Adults,10
low_switch,0,correct,1.2728,27,1,1,19.46849315068493,19,Adults,10
low_switch,0,correct,0.6164,28,1,1,19.46849315068493,19,Adults,10
low_switch,1,correct,1.2833,29,1,1,19.46849315068493,19,Adults,10
low_switch,0,correct,0.9322,30,1,1,19.46849315068493,19,Adults,10
high_switch,0,correct,0.6606,31,2,1,19.46849315068493,19,Adults,10
high_switch,1,correct,0.6146,32,2,1,19.46849315068493,19,Adults,10
high_switch,0,correct,0.5313,33,2,1,19.46849315068493,19,Adults,10
high_switch,1,correct,0.9942,34,2,1,19.46849315068493,19,Adults,10
high_switch,1,correct,0.9136,35,2,1,19.46849315068493,19,Adults,10
high_switch,1,correct,0.813,36,2,1,19.46849315068493,19,Adults,10
high_switch,1,correct,0.776,37,2,1,19.46849315068493,19,Adults,10
high_switch,0,correct,0.7085,38,2,1,19.46849315068493,19,Adults,10
high_switch,0,correct,0.9882,39,2,1,19.46849315068493,19,Adults,10
high_switch,1,correct,1.147,40,2,1,19.46849315068493,19,Adults,10
high_switch,0,correct,0.7474,41,2,1,19.46849315068493,19,Adults,10
high_switch,0,correct,0.6469,42,2,1,19.46849315068493,19,Adults,10
high_switch,1,correct,1.0367,43,2,1,19.46849315068493,19,Adults,10
high_switch,0,correct,1.0594,44,2,1,19.46849315068493,19,Adults,10
high_switch,0,correct,0.7772,45,2,1,19.46849315068493,19,Adults,10
high_switch,0,correct,0.6845,46,2,1,19.46849315068493,19,Adults,10
high_switch,1,correct,0.7596,47,2,1,19.46849315068493,19,Adults,10
high_switch,0,correct,1.0058,48,2,1,19.46849315068493,19,Adults,10
high_switch,1,correct,0.8299,49,2,1,19.46849315068493,19,Adults,10
high_switch,0,correct,0.8426,50,2,1,19.46849315068493,19,Adults,10
high_switch,1,correct,1.6492,51,2,1,19.46849315068493,19,Adults,10
high_switch,1,correct,0.8845,52,2,1,19.46849315068493,19,Adults,10
high_switch,0,correct,0.6589,53,2,1,19.46849315068493,19,Adults,10
high_switch,0,correct,1.1263,54,2,1,19.46849315068493,19,Adults,10
high_switch,1,correct,1.0356,55,2,1,19.46849315068493,19,Adults,10
high_switch,0,correct,1.1886,56,2,1,19.46849315068493,19,Adults,10
high_switch,1,correct,0.8604,57,2,1,19.46849315068493,19,Adults,10
high_switch,0,correct,1.1608,58,2,1,19.46849315068493,19,Adults,10
high_switch,1,correct,1.3452,59,2,1,19.46849315068493,19,Adults,10
high_switch,1,correct,0.8332,60,2,1,19.46849315068493,19,Adults,10
low_switch,0,too_slow,NA,61,3,NA,19.46849315068493,19,Adults,10
low_switch,1,correct,0.8956,62,3,1,19.46849315068493,19,Adults,10
low_switch,0,correct,0.6191,63,3,1,19.46849315068493,19,Adults,10
low_switch,0,correct,0.5825,64,3,1,19.46849315068493,19,Adults,10
low_switch,0,correct,0.8768,65,3,1,19.46849315068493,19,Adults,10
low_switch,0,correct,0.5665,66,3,1,19.46849315068493,19,Adults,10
low_switch,0,correct,0.676,67,3,1,19.46849315068493,19,Adults,10
low_switch,0,correct,0.75,68,3,1,19.46849315068493,19,Adults,10
low_switch,0,correct,0.6408,69,3,1,19.46849315068493,19,Adults,10
low_switch,0,correct,0.5372,70,3,1,19.46849315068493,19,Adults,10
low_switch,0,correct,0.4883,71,3,1,19.46849315068493,19,Adults,10
low_switch,0,correct,0.7277,72,3,1,19.46849315068493,19,Adults,10
low_switch,1,correct,1.4099,73,3,1,19.46849315068493,19,Adults,10
low_switch,1,correct,0.8987,74,3,1,19.46849315068493,19,Adults,10
low_switch,0,correct,0.6195,75,3,1,19.46849315068493,19,Adults,10
low_switch,1,correct,0.8812,76,3,1,19.46849315068493,19,Adults,10
low_switch,0,correct,0.7089,77,3,1,19.46849315068493,19,Adults,10
low_switch,0,correct,0.5379,78,3,1,19.46849315068493,19,Adults,10
low_switch,0,correct,0.8861,79,3,1,19.46849315068493,19,Adults,10
low_switch,0,correct,0.7066,80,3,1,19.46849315068493,19,Adults,10
low_switch,0,correct,0.71,81,3,1,19.46849315068493,19,Adults,10
low_switch,1,correct,0.6439,82,3,1,19.46849315068493,19,Adults,10
low_switch,0,correct,0.5619,83,3,1,19.46849315068493,19,Adults,10
low_switch,0,correct,0.717,84,3,1,19.46849315068493,19,Adults,10
low_switch,0,correct,1.1163,85,3,1,19.46849315068493,19,Adults,10
low_switch,0,correct,0.6138,86,3,1,19.46849315068493,19,Adults,10
low_switch,0,correct,0.6476,87,3,1,19.46849315068493,19,Adults,10
low_switch,0,correct,1.4941,88,3,1,19.46849315068493,19,Adults,10
low_switch,0,correct,0.7607,89,3,1,19.46849315068493,19,Adults,10
low_switch,1,correct,1.1988,90,3,1,19.46849315068493,19,Adults,10
high_switch,0,correct,0.7824,91,4,1,19.46849315068493,19,Adults,10
high_switch,1,correct,0.7102,92,4,1,19.46849315068493,19,Adults,10
high_switch,0,correct,0.7549,93,4,1,19.46849315068493,19,Adults,10
high_switch,1,incorrect,0.9089,94,4,0,19.46849315068493,19,Adults,10
high_switch,0,correct,1.2836,95,4,1,19.46849315068493,19,Adults,10
high_switch,0,correct,1.0511,96,4,1,19.46849315068493,19,Adults,10
high_switch,0,correct,1.1343,97,4,1,19.46849315068493,19,Adults,10
high_switch,0,correct,0.8992,98,4,1,19.46849315068493,19,Adults,10
high_switch,0,incorrect,0.7723,99,4,0,19.46849315068493,19,Adults,10
high_switch,1,correct,1.0328,100,4,1,19.46849315068493,19,Adults,10
high_switch,0,correct,0.6865,101,4,1,19.46849315068493,19,Adults,10
high_switch,1,correct,0.9038,102,4,1,19.46849315068493,19,Adults,10
high_switch,1,correct,0.8302,103,4,1,19.46849315068493,19,Adults,10
high_switch,1,correct,1.1769,104,4,1,19.46849315068493,19,Adults,10
high_switch,0,incorrect,1.2806,105,4,0,19.46849315068493,19,Adults,10
high_switch,1,correct,1.1415,106,4,1,19.46849315068493,19,Adults,10
high_switch,1,correct,1.377,107,4,1,19.46849315068493,19,Adults,10
high_switch,0,correct,0.903,108,4,1,19.46849315068493,19,Adults,10
high_switch,0,correct,0.8584,109,4,1,19.46849315068493,19,Adults,10
high_switch,0,correct,0.8788,110,4,1,19.46849315068493,19,Adults,10
high_switch,0,correct,0.7405,111,4,1,19.46849315068493,19,Adults,10
high_switch,1,correct,1.1588,112,4,1,19.46849315068493,19,Adults,10
high_switch,1,correct,1.0605,113,4,1,19.46849315068493,19,Adults,10
high_switch,0,correct,1.3456,114,4,1,19.46849315068493,19,Adults,10
high_switch,1,correct,1.5145,115,4,1,19.46849315068493,19,Adults,10
high_switch,0,correct,1.0801,116,4,1,19.46849315068493,19,Adults,10
high_switch,1,correct,1.5299,117,4,1,19.46849315068493,19,Adults,10
high_switch,1,correct,1.7293,118,4,1,19.46849315068493,19,Adults,10
high_switch,1,correct,1.1938,119,4,1,19.46849315068493,19,Adults,10
high_switch,1,correct,1.2451,120,4,1,19.46849315068493,19,Adults,10
low_switch,0,correct,1.3657,1,1,1,15.934246575342463,15,Adolescents,11
low_switch,0,correct,2.0211,2,1,1,15.934246575342463,15,Adolescents,11
low_switch,1,correct,1.2357,3,1,1,15.934246575342463,15,Adolescents,11
low_switch,0,correct,1.3745,4,1,1,15.934246575342463,15,Adolescents,11
low_switch,0,correct,1.3363,5,1,1,15.934246575342463,15,Adolescents,11
low_switch,0,correct,1.2068,6,1,1,15.934246575342463,15,Adolescents,11
low_switch,1,incorrect,0.7605,7,1,0,15.934246575342463,15,Adolescents,11
low_switch,0,too_slow,NA,8,1,NA,15.934246575342463,15,Adolescents,11
low_switch,0,correct,2.9144,9,1,1,15.934246575342463,15,Adolescents,11
low_switch,0,correct,1.5535,10,1,1,15.934246575342463,15,Adolescents,11
low_switch,0,correct,1.3524,11,1,1,15.934246575342463,15,Adolescents,11
low_switch,1,incorrect,1.5202,12,1,0,15.934246575342463,15,Adolescents,11
low_switch,0,correct,2.1227,13,1,1,15.934246575342463,15,Adolescents,11
low_switch,0,correct,1.4174,14,1,1,15.934246575342463,15,Adolescents,11
low_switch,1,correct,1.442,15,1,1,15.934246575342463,15,Adolescents,11
low_switch,0,correct,0.9172,16,1,1,15.934246575342463,15,Adolescents,11
low_switch,0,correct,0.8515,17,1,1,15.934246575342463,15,Adolescents,11
low_switch,0,correct,1.1095,18,1,1,15.934246575342463,15,Adolescents,11
low_switch,0,correct,2.5668,19,1,1,15.934246575342463,15,Adolescents,11
low_switch,0,correct,1.0955,20,1,1,15.934246575342463,15,Adolescents,11
low_switch,0,correct,0.65,21,1,1,15.934246575342463,15,Adolescents,11
low_switch,0,incorrect,0.8339,22,1,0,15.934246575342463,15,Adolescents,11
low_switch,1,correct,1.0062,23,1,1,15.934246575342463,15,Adolescents,11
low_switch,0,correct,1.0712,24,1,1,15.934246575342463,15,Adolescents,11
low_switch,0,incorrect,2.5178,25,1,0,15.934246575342463,15,Adolescents,11
low_switch,1,correct,2.482,26,1,1,15.934246575342463,15,Adolescents,11
low_switch,0,correct,1.7408,27,1,1,15.934246575342463,15,Adolescents,11
low_switch,0,correct,1.4886,28,1,1,15.934246575342463,15,Adolescents,11
low_switch,0,correct,0.7996,29,1,1,15.934246575342463,15,Adolescents,11
low_switch,0,correct,2.1885,30,1,1,15.934246575342463,15,Adolescents,11
high_switch,0,correct,1.5207,31,2,1,15.934246575342463,15,Adolescents,11
high_switch,0,correct,1.4087,32,2,1,15.934246575342463,15,Adolescents,11
high_switch,0,correct,2.5951,33,2,1,15.934246575342463,15,Adolescents,11
high_switch,1,correct,1.5171,34,2,1,15.934246575342463,15,Adolescents,11
high_switch,1,correct,2.2267,35,2,1,15.934246575342463,15,Adolescents,11
high_switch,0,correct,1.3579,36,2,1,15.934246575342463,15,Adolescents,11
high_switch,1,incorrect,2.2117,37,2,0,15.934246575342463,15,Adolescents,11
high_switch,0,correct,1.9866,38,2,1,15.934246575342463,15,Adolescents,11
high_switch,1,correct,2.4907,39,2,1,15.934246575342463,15,Adolescents,11
high_switch,0,correct,1.239,40,2,1,15.934246575342463,15,Adolescents,11
high_switch,0,correct,2.1163,41,2,1,15.934246575342463,15,Adolescents,11
high_switch,0,correct,1.7597,42,2,1,15.934246575342463,15,Adolescents,11
high_switch,1,correct,2.0895,43,2,1,15.934246575342463,15,Adolescents,11
high_switch,1,correct,1.8657,44,2,1,15.934246575342463,15,Adolescents,11
high_switch,0,correct,1.0901,45,2,1,15.934246575342463,15,Adolescents,11
high_switch,1,correct,2.4255,46,2,1,15.934246575342463,15,Adolescents,11
high_switch,1,correct,0.938,47,2,1,15.934246575342463,15,Adolescents,11
high_switch,1,correct,1.776,48,2,1,15.934246575342463,15,Adolescents,11
high_switch,1,correct,1.684,49,2,1,15.934246575342463,15,Adolescents,11
high_switch,0,correct,2.3431,50,2,1,15.934246575342463,15,Adolescents,11
high_switch,0,correct,2.286,51,2,1,15.934246575342463,15,Adolescents,11
high_switch,1,correct,1.3784,52,2,1,15.934246575342463,15,Adolescents,11
high_switch,0,correct,1.3122,53,2,1,15.934246575342463,15,Adolescents,11
high_switch,1,correct,1.7084,54,2,1,15.934246575342463,15,Adolescents,11
high_switch,1,correct,2.8908,55,2,1,15.934246575342463,15,Adolescents,11
high_switch,1,correct,2.0184,56,2,1,15.934246575342463,15,Adolescents,11
high_switch,0,incorrect,0.0592,57,2,0,15.934246575342463,15,Adolescents,11
high_switch,0,correct,2.3036,58,2,1,15.934246575342463,15,Adolescents,11
high_switch,0,correct,1.0452,59,2,1,15.934246575342463,15,Adolescents,11
high_switch,1,correct,1.0498,60,2,1,15.934246575342463,15,Adolescents,11
low_switch,0,too_slow,NA,61,3,NA,15.934246575342463,15,Adolescents,11
low_switch,0,too_slow,NA,62,3,NA,15.934246575342463,15,Adolescents,11
low_switch,0,correct,1.3929,63,3,1,15.934246575342463,15,Adolescents,11
low_switch,0,correct,1.7678,64,3,1,15.934246575342463,15,Adolescents,11
low_switch,1,correct,1.9252,65,3,1,15.934246575342463,15,Adolescents,11
low_switch,1,correct,0.9488,66,3,1,15.934246575342463,15,Adolescents,11
low_switch,0,correct,1.2282,67,3,1,15.934246575342463,15,Adolescents,11
low_switch,1,correct,1.4777,68,3,1,15.934246575342463,15,Adolescents,11
low_switch,0,correct,1.1666,69,3,1,15.934246575342463,15,Adolescents,11
low_switch,0,correct,0.953,70,3,1,15.934246575342463,15,Adolescents,11
low_switch,0,correct,0.9181,71,3,1,15.934246575342463,15,Adolescents,11
low_switch,0,correct,1.4668,72,3,1,15.934246575342463,15,Adolescents,11
low_switch,0,correct,1.3374,73,3,1,15.934246575342463,15,Adolescents,11
low_switch,0,correct,0.9859,74,3,1,15.934246575342463,15,Adolescents,11
low_switch,0,correct,1.0383,75,3,1,15.934246575342463,15,Adolescents,11
low_switch,0,correct,0.84,76,3,1,15.934246575342463,15,Adolescents,11
low_switch,0,correct,1.8512,77,3,1,15.934246575342463,15,Adolescents,11
low_switch,0,correct,0.9753,78,3,1,15.934246575342463,15,Adolescents,11
low_switch,0,correct,0.5482,79,3,1,15.934246575342463,15,Adolescents,11
low_switch,0,correct,0.9165,80,3,1,15.934246575342463,15,Adolescents,11
low_switch,1,correct,1.871,81,3,1,15.934246575342463,15,Adolescents,11
low_switch,0,correct,1.9358,82,3,1,15.934246575342463,15,Adolescents,11
low_switch,1,correct,1.7735,83,3,1,15.934246575342463,15,Adolescents,11
low_switch,1,too_slow,NA,84,3,NA,15.934246575342463,15,Adolescents,11
low_switch,0,incorrect,2.0526,85,3,0,15.934246575342463,15,Adolescents,11
low_switch,0,correct,1.5829,86,3,1,15.934246575342463,15,Adolescents,11
low_switch,0,correct,1.3835,87,3,1,15.934246575342463,15,Adolescents,11
low_switch,0,correct,0.9722,88,3,1,15.934246575342463,15,Adolescents,11
low_switch,0,correct,2.5848,89,3,1,15.934246575342463,15,Adolescents,11
low_switch,0,correct,1.1144,90,3,1,15.934246575342463,15,Adolescents,11
high_switch,0,correct,1.5922,91,4,1,15.934246575342463,15,Adolescents,11
high_switch,1,correct,1.1255,92,4,1,15.934246575342463,15,Adolescents,11
high_switch,0,correct,1.2703,93,4,1,15.934246575342463,15,Adolescents,11
high_switch,1,correct,0.955,94,4,1,15.934246575342463,15,Adolescents,11
high_switch,1,correct,1.3771,95,4,1,15.934246575342463,15,Adolescents,11
high_switch,0,correct,1.2805,96,4,1,15.934246575342463,15,Adolescents,11
high_switch,0,correct,0.8222,97,4,1,15.934246575342463,15,Adolescents,11
high_switch,0,correct,1.4659,98,4,1,15.934246575342463,15,Adolescents,11
high_switch,0,correct,1.0383,99,4,1,15.934246575342463,15,Adolescents,11
high_switch,1,correct,1.4711,100,4,1,15.934246575342463,15,Adolescents,11
high_switch,1,correct,0.9802,101,4,1,15.934246575342463,15,Adolescents,11
high_switch,1,correct,1.2076,102,4,1,15.934246575342463,15,Adolescents,11
high_switch,1,correct,0.8267,103,4,1,15.934246575342463,15,Adolescents,11
high_switch,0,correct,0.7316,104,4,1,15.934246575342463,15,Adolescents,11
high_switch,1,correct,1.8432,105,4,1,15.934246575342463,15,Adolescents,11
high_switch,0,correct,1.9582,106,4,1,15.934246575342463,15,Adolescents,11
high_switch,1,correct,1.7109,107,4,1,15.934246575342463,15,Adolescents,11
high_switch,1,correct,0.962,108,4,1,15.934246575342463,15,Adolescents,11
high_switch,1,correct,0.7913,109,4,1,15.934246575342463,15,Adolescents,11
high_switch,1,correct,0.583,110,4,1,15.934246575342463,15,Adolescents,11
high_switch,1,correct,0.7897,111,4,1,15.934246575342463,15,Adolescents,11
high_switch,1,correct,1.9857,112,4,1,15.934246575342463,15,Adolescents,11
high_switch,0,correct,1.7142,113,4,1,15.934246575342463,15,Adolescents,11
high_switch,0,correct,0.9166,114,4,1,15.934246575342463,15,Adolescents,11
high_switch,0,correct,1.9922,115,4,1,15.934246575342463,15,Adolescents,11
high_switch,0,correct,1.3866,116,4,1,15.934246575342463,15,Adolescents,11
high_switch,0,correct,1.6686,117,4,1,15.934246575342463,15,Adolescents,11
high_switch,0,correct,1.0192,118,4,1,15.934246575342463,15,Adolescents,11
high_switch,1,correct,1.0432,119,4,1,15.934246575342463,15,Adolescents,11
high_switch,0,correct,2.1808,120,4,1,15.934246575342463,15,Adolescents,11
low_switch,0,too_slow,NA,1,1,NA,15.583561643835615,15,Adolescents,12
low_switch,1,correct,0.4732,2,1,1,15.583561643835615,15,Adolescents,12
low_switch,1,correct,0.584,3,1,1,15.583561643835615,15,Adolescents,12
low_switch,0,correct,0.685,4,1,1,15.583561643835615,15,Adolescents,12
low_switch,0,correct,0.7975,5,1,1,15.583561643835615,15,Adolescents,12
low_switch,0,correct,0.5269,6,1,1,15.583561643835615,15,Adolescents,12
low_switch,0,too_slow,NA,7,1,NA,15.583561643835615,15,Adolescents,12
low_switch,0,correct,0.6258,8,1,1,15.583561643835615,15,Adolescents,12
low_switch,0,correct,0.8694,9,1,1,15.583561643835615,15,Adolescents,12
low_switch,0,correct,0.7424,10,1,1,15.583561643835615,15,Adolescents,12
low_switch,1,correct,1.1499,11,1,1,15.583561643835615,15,Adolescents,12
low_switch,0,correct,0.7356,12,1,1,15.583561643835615,15,Adolescents,12
low_switch,0,correct,0.9585,13,1,1,15.583561643835615,15,Adolescents,12
low_switch,1,correct,0.815,14,1,1,15.583561643835615,15,Adolescents,12
low_switch,0,correct,1.0594,15,1,1,15.583561643835615,15,Adolescents,12
low_switch,0,correct,0.5665,16,1,1,15.583561643835615,15,Adolescents,12
low_switch,0,correct,0.8123,17,1,1,15.583561643835615,15,Adolescents,12
low_switch,0,correct,0.6107,18,1,1,15.583561643835615,15,Adolescents,12
low_switch,0,correct,0.5736,19,1,1,15.583561643835615,15,Adolescents,12
low_switch,0,correct,0.5915,20,1,1,15.583561643835615,15,Adolescents,12
low_switch,0,correct,0.7317,21,1,1,15.583561643835615,15,Adolescents,12
low_switch,0,correct,0.5294,22,1,1,15.583561643835615,15,Adolescents,12
low_switch,0,correct,0.4847,23,1,1,15.583561643835615,15,Adolescents,12
low_switch,0,correct,0.5441,24,1,1,15.583561643835615,15,Adolescents,12
low_switch,1,correct,0.4484,25,1,1,15.583561643835615,15,Adolescents,12
low_switch,0,correct,0.4006,26,1,1,15.583561643835615,15,Adolescents,12
low_switch,0,correct,0.4856,27,1,1,15.583561643835615,15,Adolescents,12
low_switch,0,correct,0.5494,28,1,1,15.583561643835615,15,Adolescents,12
low_switch,1,correct,0.7704,29,1,1,15.583561643835615,15,Adolescents,12
low_switch,0,correct,0.7433,30,1,1,15.583561643835615,15,Adolescents,12
high_switch,0,correct,0.8679,31,2,1,15.583561643835615,15,Adolescents,12
high_switch,1,correct,1.2148,32,2,1,15.583561643835615,15,Adolescents,12
high_switch,0,correct,0.7943,33,2,1,15.583561643835615,15,Adolescents,12
high_switch,0,correct,0.525,34,2,1,15.583561643835615,15,Adolescents,12
high_switch,1,correct,0.9407,35,2,1,15.583561643835615,15,Adolescents,12
high_switch,0,correct,0.6606,36,2,1,15.583561643835615,15,Adolescents,12
high_switch,0,correct,0.5758,37,2,1,15.583561643835615,15,Adolescents,12
high_switch,1,correct,0.7851,38,2,1,15.583561643835615,15,Adolescents,12
high_switch,1,correct,0.7483,39,2,1,15.583561643835615,15,Adolescents,12
high_switch,0,correct,0.5595,40,2,1,15.583561643835615,15,Adolescents,12
high_switch,0,correct,0.6457,41,2,1,15.583561643835615,15,Adolescents,12
high_switch,0,correct,0.5232,42,2,1,15.583561643835615,15,Adolescents,12
high_switch,1,correct,0.4864,43,2,1,15.583561643835615,15,Adolescents,12
high_switch,0,correct,0.5421,44,2,1,15.583561643835615,15,Adolescents,12
high_switch,0,correct,0.5646,45,2,1,15.583561643835615,15,Adolescents,12
high_switch,0,correct,0.4727,46,2,1,15.583561643835615,15,Adolescents,12
high_switch,0,correct,0.4642,47,2,1,15.583561643835615,15,Adolescents,12
high_switch,1,correct,0.6251,48,2,1,15.583561643835615,15,Adolescents,12
high_switch,1,correct,0.9595,49,2,1,15.583561643835615,15,Adolescents,12
high_switch,1,correct,0.7646,50,2,1,15.583561643835615,15,Adolescents,12
high_switch,1,correct,0.9431,51,2,1,15.583561643835615,15,Adolescents,12
high_switch,0,correct,0.5933,52,2,1,15.583561643835615,15,Adolescents,12
high_switch,1,correct,0.8031,53,2,1,15.583561643835615,15,Adolescents,12
high_switch,0,correct,0.6912,54,2,1,15.583561643835615,15,Adolescents,12
high_switch,0,correct,0.7271,55,2,1,15.583561643835615,15,Adolescents,12
high_switch,1,correct,0.8434,56,2,1,15.583561643835615,15,Adolescents,12
high_switch,1,correct,0.6581,57,2,1,15.583561643835615,15,Adolescents,12
high_switch,1,correct,0.5128,58,2,1,15.583561643835615,15,Adolescents,12
high_switch,1,correct,0.6571,59,2,1,15.583561643835615,15,Adolescents,12
high_switch,1,correct,0.6479,60,2,1,15.583561643835615,15,Adolescents,12
low_switch,0,correct,1.1185,61,3,1,15.583561643835615,15,Adolescents,12
low_switch,0,incorrect,0.7261,62,3,0,15.583561643835615,15,Adolescents,12
low_switch,0,correct,0.6375,63,3,1,15.583561643835615,15,Adolescents,12
low_switch,0,correct,0.6494,64,3,1,15.583561643835615,15,Adolescents,12
low_switch,0,correct,0.5146,65,3,1,15.583561643835615,15,Adolescents,12
low_switch,1,correct,0.4469,66,3,1,15.583561643835615,15,Adolescents,12
low_switch,1,correct,0.5215,67,3,1,15.583561643835615,15,Adolescents,12
low_switch,1,correct,0.9446,68,3,1,15.583561643835615,15,Adolescents,12
low_switch,0,correct,0.611,69,3,1,15.583561643835615,15,Adolescents,12
low_switch,0,correct,0.4452,70,3,1,15.583561643835615,15,Adolescents,12
low_switch,0,correct,0.5148,71,3,1,15.583561643835615,15,Adolescents,12
low_switch,0,correct,0.458,72,3,1,15.583561643835615,15,Adolescents,12
low_switch,1,correct,0.5206,73,3,1,15.583561643835615,15,Adolescents,12
low_switch,0,correct,0.9597,74,3,1,15.583561643835615,15,Adolescents,12
low_switch,0,correct,0.8783,75,3,1,15.583561643835615,15,Adolescents,12
low_switch,0,correct,0.4542,76,3,1,15.583561643835615,15,Adolescents,12
low_switch,0,correct,0.7572,77,3,1,15.583561643835615,15,Adolescents,12
low_switch,0,correct,0.5277,78,3,1,15.583561643835615,15,Adolescents,12
low_switch,0,correct,0.5736,79,3,1,15.583561643835615,15,Adolescents,12
low_switch,0,correct,0.7095,80,3,1,15.583561643835615,15,Adolescents,12
low_switch,0,correct,0.6909,81,3,1,15.583561643835615,15,Adolescents,12
low_switch,0,correct,0.8477,82,3,1,15.583561643835615,15,Adolescents,12
low_switch,0,correct,0.7124,83,3,1,15.583561643835615,15,Adolescents,12
low_switch,1,correct,0.5579,84,3,1,15.583561643835615,15,Adolescents,12
low_switch,0,correct,0.6246,85,3,1,15.583561643835615,15,Adolescents,12
low_switch,0,correct,0.5093,86,3,1,15.583561643835615,15,Adolescents,12
low_switch,1,correct,0.7776,87,3,1,15.583561643835615,15,Adolescents,12
low_switch,0,correct,0.6403,88,3,1,15.583561643835615,15,Adolescents,12
low_switch,0,incorrect,0.5874,89,3,0,15.583561643835615,15,Adolescents,12
low_switch,0,correct,0.9524,90,3,1,15.583561643835615,15,Adolescents,12
high_switch,0,correct,0.9477,91,4,1,15.583561643835615,15,Adolescents,12
high_switch,1,correct,0.5263,92,4,1,15.583561643835615,15,Adolescents,12
high_switch,1,correct,0.5372,93,4,1,15.583561643835615,15,Adolescents,12
high_switch,0,correct,0.6271,94,4,1,15.583561643835615,15,Adolescents,12
high_switch,1,correct,0.558,95,4,1,15.583561643835615,15,Adolescents,12
high_switch,0,correct,0.6481,96,4,1,15.583561643835615,15,Adolescents,12
high_switch,1,correct,0.738,97,4,1,15.583561643835615,15,Adolescents,12
high_switch,0,correct,0.5248,98,4,1,15.583561643835615,15,Adolescents,12
high_switch,1,correct,0.5535,99,4,1,15.583561643835615,15,Adolescents,12
high_switch,1,correct,1.2248000000000001,100,4,1,15.583561643835615,15,Adolescents,12
high_switch,1,correct,0.6392,101,4,1,15.583561643835615,15,Adolescents,12
high_switch,1,correct,0.4989,102,4,1,15.583561643835615,15,Adolescents,12
high_switch,1,correct,0.4625,103,4,1,15.583561643835615,15,Adolescents,12
high_switch,1,correct,0.6384,104,4,1,15.583561643835615,15,Adolescents,12
high_switch,1,correct,0.0766,105,4,1,15.583561643835615,15,Adolescents,12
high_switch,0,correct,0.5451,106,4,1,15.583561643835615,15,Adolescents,12
high_switch,0,incorrect,0.4092,107,4,0,15.583561643835615,15,Adolescents,12
high_switch,1,correct,0.6542,108,4,1,15.583561643835615,15,Adolescents,12
high_switch,0,correct,0.8593,109,4,1,15.583561643835615,15,Adolescents,12
high_switch,1,correct,0.5224,110,4,1,15.583561643835615,15,Adolescents,12
high_switch,0,correct,0.5232,111,4,1,15.583561643835615,15,Adolescents,12
high_switch,0,correct,0.4744,112,4,1,15.583561643835615,15,Adolescents,12
high_switch,0,correct,0.4446,113,4,1,15.583561643835615,15,Adolescents,12
high_switch,1,correct,0.7766,114,4,1,15.583561643835615,15,Adolescents,12
high_switch,0,correct,0.8113,115,4,1,15.583561643835615,15,Adolescents,12
high_switch,0,correct,0.8607,116,4,1,15.583561643835615,15,Adolescents,12
high_switch,0,incorrect,0.6448,117,4,0,15.583561643835615,15,Adolescents,12
high_switch,1,correct,0.7118,118,4,1,15.583561643835615,15,Adolescents,12
high_switch,0,correct,0.6507,119,4,1,15.583561643835615,15,Adolescents,12
high_switch,0,correct,0.6335,120,4,1,15.583561643835615,15,Adolescents,12
low_switch,0,correct,1.504,1,1,1,11.572602739726028,11,Children,13
low_switch,0,correct,0.8772,2,1,1,11.572602739726028,11,Children,13
low_switch,0,correct,1.0585,3,1,1,11.572602739726028,11,Children,13
low_switch,0,correct,1.0224,4,1,1,11.572602739726028,11,Children,13
low_switch,0,correct,0.8581,5,1,1,11.572602739726028,11,Children,13
